accelerometer_X,accelerometer_Y,accelerometer_Z
1.000776,4.616021,8.576031
0.7182609999999999,4.209007,8.446744
-0.909797,-0.282516,9.203311
5.09965,0.148441,8.418014
1.762132,-0.162806,9.251195
-0.086191,-0.148441,9.787497
-0.062249,-0.1915359999999999,9.773131
-0.057461,-0.114922,9.763555
-0.124498,-0.162806,9.782708
-0.138864,-0.124498,9.768343
-0.0957679999999999,-0.1292869999999999,9.773131
-0.114922,-0.134075,9.782708
-0.114922,-0.134075,9.744401
-0.0909799999999999,-0.143652,9.773131
-0.0957679999999999,-0.1292869999999999,9.782708
-0.105345,-0.114922,9.763555
-0.148441,-0.148441,9.787497
-0.134075,-0.105345,9.773131
-0.1005559999999999,-0.124498,9.763555
-0.081403,-0.110133,9.744401
-0.124498,-0.153229,9.773131
-0.320823,-0.1915359999999999,9.792285
0.148441,-0.234632,9.768343
0.407014,0.0239419999999999,9.80665
-0.311246,-0.167594,9.768343
-0.038307,-0.244209,9.782708
-0.114922,-0.158017,9.801862
-0.124498,-0.114922,9.758766
-0.167594,-0.124498,9.667787
-0.11971,-0.124498,9.792285
-0.1005559999999999,-0.124498,9.763555
-0.081403,-0.110133,9.744401
-0.124498,-0.153229,9.773131
-0.320823,-0.1915359999999999,9.792285
0.148441,-0.234632,9.768343
0.407014,0.0239419999999999,9.80665
-0.311246,-0.167594,9.768343
-0.038307,-0.244209,9.782708
-0.114922,-0.158017,9.801862
-0.124498,-0.114922,9.758766
-0.167594,-0.124498,9.667787
-0.11971,-0.124498,9.792285
-0.1005559999999999,-0.148441,9.792285
-0.138864,-0.110133,9.782708
-0.114922,-0.1292869999999999,9.77792
-0.1292869999999999,-0.124498,9.782708
-0.138864,-0.138864,9.77792
-0.114922,-0.11971,9.77792
-0.114922,-0.143652,9.758766
0.014365,-0.057461,9.734824
-0.110133,-0.134075,9.77792
-0.153229,-0.124498,9.763555
-0.086191,-0.134075,9.749189
-0.124498,-0.134075,9.782708
-0.138864,-0.134075,9.792285
-0.110133,-0.11971,9.77792
-0.0957679999999999,-0.124498,9.782708
-0.1292869999999999,-0.143652,9.77792
-0.1915359999999999,-0.057461,9.768343
-0.033519,-0.134075,9.758766
-0.0957679999999999,0.234632,9.763555
-0.086191,0.234632,9.753978
-0.105345,0.225055,9.753978
-0.086191,0.234632,9.77792
-0.076614,0.225055,9.744401
-0.114922,0.225055,9.753978
-0.081403,0.196325,9.782708
-0.124498,0.225055,9.768343
-0.1005559999999999,0.201113,9.763555
-0.124498,0.215478,9.773131
-0.11971,0.220267,9.744401
-0.105345,0.220267,9.792285
-0.086191,0.21069,9.773131
-0.114922,0.215478,9.768343
-0.062249,0.177171,9.768343
-0.1005559999999999,0.220267,9.77792
-0.0957679999999999,0.177171,9.792285
-0.086191,0.23942,9.77792
-0.1005559999999999,0.234632,9.763555
-0.067038,0.244209,9.773131
-0.110133,0.229843,9.792285
-0.105345,0.215478,9.782708
-0.1005559999999999,0.225055,9.768343
-0.1005559999999999,0.225055,9.753978
-0.0957679999999999,0.225055,9.787497
-0.110133,0.21069,9.758766
-0.11971,0.234632,9.758766
-0.105345,0.21069,9.763555
-0.110133,0.234632,9.782708
-0.105345,0.23942,9.739613
0.3926489999999999,-0.071826,9.768343
0.387861,-0.062249,9.753978
0.440533,0.033519,9.734824
0.42138,-0.052672,9.749189
0.426168,-0.019154,9.734824
0.45011,-0.105345,9.773131
0.3304,0.057461,9.739613
0.378284,-0.014365,9.744401
0.45011,-0.014365,9.77792
0.488417,-0.062249,9.749189
0.3734949999999999,-0.0478839999999999,9.749189
0.3734949999999999,-0.014365,9.787497
0.430956,0.009577,9.773131
0.416591,-0.038307,9.753978
0.435745,-0.033519,9.749189
0.411803,0.02873,9.739613
0.42138,-0.0909799999999999,9.730036
0.3926489999999999,-0.019154,9.753978
0.3926489999999999,-0.033519,9.763555
0.387861,-0.0430959999999999,9.734824
0.3830719999999999,-0.019154,9.725247
0.411803,0.019154,9.744401
0.320823,-0.1005559999999999,9.758766
0.344765,-0.009577,9.753978
0.3734949999999999,0.009577,9.758766
0.416591,-0.033519,9.753978
0.368707,-0.014365,9.768343
0.378284,-0.0239419999999999,9.730036
0.560243,-0.205901,9.797073
0.268151,0.086191,9.725247
0.440533,0.033519,9.734824
0.42138,-0.052672,9.749189
0.426168,-0.019154,9.734824
0.45011,-0.105345,9.773131
0.3304,0.057461,9.739613
0.378284,-0.014365,9.744401
0.45011,-0.014365,9.77792
0.488417,-0.062249,9.749189
0.3734949999999999,-0.0478839999999999,9.749189
0.3734949999999999,-0.014365,9.787497
0.430956,0.009577,9.773131
0.416591,-0.038307,9.753978
0.435745,-0.033519,9.749189
0.411803,0.02873,9.739613
0.42138,-0.0909799999999999,9.730036
0.3926489999999999,-0.019154,9.753978
0.3926489999999999,-0.033519,9.763555
0.387861,-0.0430959999999999,9.734824
0.3830719999999999,-0.019154,9.725247
0.411803,0.019154,9.744401
0.320823,-0.1005559999999999,9.758766
0.344765,-0.009577,9.753978
0.3734949999999999,0.009577,9.758766
0.416591,-0.033519,9.753978
0.368707,-0.014365,9.768343
0.378284,-0.0239419999999999,9.730036
0.560243,-0.205901,9.797073
0.268151,0.086191,9.725247
0.368707,-0.004788,9.77792
0.411803,-0.057461,9.77792
0.426168,-0.019154,9.734824
0.45011,-0.105345,9.773131
0.3304,0.057461,9.739613
0.378284,-0.014365,9.744401
0.45011,-0.014365,9.77792
0.488417,-0.062249,9.749189
0.3734949999999999,-0.0478839999999999,9.749189
0.3734949999999999,-0.014365,9.787497
0.430956,0.009577,9.773131
0.416591,-0.038307,9.753978
0.435745,-0.033519,9.749189
0.411803,0.02873,9.739613
0.42138,-0.0909799999999999,9.730036
0.3926489999999999,-0.019154,9.753978
0.3926489999999999,-0.033519,9.763555
0.387861,-0.0430959999999999,9.734824
0.3830719999999999,-0.019154,9.725247
0.411803,0.019154,9.744401
0.320823,-0.1005559999999999,9.758766
0.344765,-0.009577,9.753978
0.3734949999999999,0.009577,9.758766
0.416591,-0.033519,9.753978
0.368707,-0.014365,9.768343
0.378284,-0.0239419999999999,9.730036
0.560243,-0.205901,9.797073
0.268151,0.086191,9.725247
0.368707,-0.004788,9.77792
0.411803,-0.057461,9.77792
0.469264,-0.076614,9.80665
0.397437,-0.02873,9.720459
0.3304,0.057461,9.739613
0.378284,-0.014365,9.744401
0.45011,-0.014365,9.77792
0.488417,-0.062249,9.749189
0.3734949999999999,-0.0478839999999999,9.749189
0.3734949999999999,-0.014365,9.787497
0.430956,0.009577,9.773131
0.416591,-0.038307,9.753978
0.435745,-0.033519,9.749189
0.411803,0.02873,9.739613
0.42138,-0.0909799999999999,9.730036
0.3926489999999999,-0.019154,9.753978
0.3926489999999999,-0.033519,9.763555
0.387861,-0.0430959999999999,9.734824
0.3830719999999999,-0.019154,9.725247
0.411803,0.019154,9.744401
0.320823,-0.1005559999999999,9.758766
0.344765,-0.009577,9.753978
0.3734949999999999,0.009577,9.758766
0.416591,-0.033519,9.753978
0.368707,-0.014365,9.768343
0.378284,-0.0239419999999999,9.730036
0.560243,-0.205901,9.797073
0.268151,0.086191,9.725247
0.368707,-0.004788,9.77792
0.411803,-0.057461,9.77792
0.469264,-0.076614,9.80665
0.397437,-0.02873,9.720459
0.35913,-0.0239419999999999,9.821015
0.387861,-0.009577,9.768343
0.45011,-0.014365,9.77792
0.488417,-0.062249,9.749189
0.3734949999999999,-0.0478839999999999,9.749189
0.3734949999999999,-0.014365,9.787497
0.430956,0.009577,9.773131
0.416591,-0.038307,9.753978
0.435745,-0.033519,9.749189
0.411803,0.02873,9.739613
0.42138,-0.0909799999999999,9.730036
0.3926489999999999,-0.019154,9.753978
0.3926489999999999,-0.033519,9.763555
0.387861,-0.0430959999999999,9.734824
0.3830719999999999,-0.019154,9.725247
0.411803,0.019154,9.744401
0.320823,-0.1005559999999999,9.758766
0.344765,-0.009577,9.753978
0.3734949999999999,0.009577,9.758766
0.416591,-0.033519,9.753978
0.368707,-0.014365,9.768343
0.378284,-0.0239419999999999,9.730036
0.560243,-0.205901,9.797073
0.268151,0.086191,9.725247
0.368707,-0.004788,9.77792
0.411803,-0.057461,9.77792
0.469264,-0.076614,9.80665
0.397437,-0.02873,9.720459
0.35913,-0.0239419999999999,9.821015
0.387861,-0.009577,9.768343
0.3734949999999999,-0.0430959999999999,9.773131
0.3830719999999999,-0.02873,9.77792
0.3734949999999999,-0.0478839999999999,9.749189
0.3734949999999999,-0.014365,9.787497
0.430956,0.009577,9.773131
0.416591,-0.038307,9.753978
0.435745,-0.033519,9.749189
0.411803,0.02873,9.739613
0.42138,-0.0909799999999999,9.730036
0.3926489999999999,-0.019154,9.753978
0.3926489999999999,-0.033519,9.763555
0.387861,-0.0430959999999999,9.734824
0.3830719999999999,-0.019154,9.725247
0.411803,0.019154,9.744401
0.320823,-0.1005559999999999,9.758766
0.344765,-0.009577,9.753978
0.3734949999999999,0.009577,9.758766
0.416591,-0.033519,9.753978
0.368707,-0.014365,9.768343
0.378284,-0.0239419999999999,9.730036
0.560243,-0.205901,9.797073
0.268151,0.086191,9.725247
0.368707,-0.004788,9.77792
0.411803,-0.057461,9.77792
0.469264,-0.076614,9.80665
0.397437,-0.02873,9.720459
0.35913,-0.0239419999999999,9.821015
0.387861,-0.009577,9.768343
0.3734949999999999,-0.0430959999999999,9.773131
0.3830719999999999,-0.02873,9.77792
0.378284,-0.0239419999999999,9.773131
0.344765,-0.0430959999999999,9.763555
0.430956,0.009577,9.773131
0.416591,-0.038307,9.753978
0.435745,-0.033519,9.749189
0.411803,0.02873,9.739613
0.42138,-0.0909799999999999,9.730036
0.3926489999999999,-0.019154,9.753978
0.3926489999999999,-0.033519,9.763555
0.387861,-0.0430959999999999,9.734824
0.3830719999999999,-0.019154,9.725247
0.411803,0.019154,9.744401
0.320823,-0.1005559999999999,9.758766
0.344765,-0.009577,9.753978
0.3734949999999999,0.009577,9.758766
0.416591,-0.033519,9.753978
0.368707,-0.014365,9.768343
0.378284,-0.0239419999999999,9.730036
0.560243,-0.205901,9.797073
0.268151,0.086191,9.725247
0.368707,-0.004788,9.77792
0.411803,-0.057461,9.77792
0.469264,-0.076614,9.80665
0.397437,-0.02873,9.720459
0.35913,-0.0239419999999999,9.821015
0.387861,-0.009577,9.768343
0.3734949999999999,-0.0430959999999999,9.773131
0.3830719999999999,-0.02873,9.77792
0.378284,-0.0239419999999999,9.773131
0.344765,-0.0430959999999999,9.763555
0.469264,-0.086191,9.730036
0.3734949999999999,-0.062249,9.763555
0.435745,-0.033519,9.749189
0.411803,0.02873,9.739613
0.42138,-0.0909799999999999,9.730036
0.3926489999999999,-0.019154,9.753978
0.3926489999999999,-0.033519,9.763555
0.387861,-0.0430959999999999,9.734824
0.3830719999999999,-0.019154,9.725247
0.411803,0.019154,9.744401
0.320823,-0.1005559999999999,9.758766
0.344765,-0.009577,9.753978
0.3734949999999999,0.009577,9.758766
0.416591,-0.033519,9.753978
0.368707,-0.014365,9.768343
0.378284,-0.0239419999999999,9.730036
0.560243,-0.205901,9.797073
0.268151,0.086191,9.725247
0.368707,-0.004788,9.77792
0.411803,-0.057461,9.77792
0.469264,-0.076614,9.80665
0.397437,-0.02873,9.720459
0.35913,-0.0239419999999999,9.821015
0.387861,-0.009577,9.768343
0.3734949999999999,-0.0430959999999999,9.773131
0.3830719999999999,-0.02873,9.77792
0.378284,-0.0239419999999999,9.773131
0.344765,-0.0430959999999999,9.763555
0.469264,-0.086191,9.730036
0.3734949999999999,-0.062249,9.763555
0.368707,-0.004788,9.744401
0.407014,0.071826,9.725247
0.42138,-0.0909799999999999,9.730036
0.3926489999999999,-0.019154,9.753978
0.3926489999999999,-0.033519,9.763555
0.387861,-0.0430959999999999,9.734824
0.3830719999999999,-0.019154,9.725247
0.411803,0.019154,9.744401
0.320823,-0.1005559999999999,9.758766
0.344765,-0.009577,9.753978
0.3734949999999999,0.009577,9.758766
0.416591,-0.033519,9.753978
0.368707,-0.014365,9.768343
0.378284,-0.0239419999999999,9.730036
0.560243,-0.205901,9.797073
0.268151,0.086191,9.725247
0.368707,-0.004788,9.77792
0.411803,-0.057461,9.77792
0.469264,-0.076614,9.80665
0.397437,-0.02873,9.720459
0.35913,-0.0239419999999999,9.821015
0.387861,-0.009577,9.768343
0.3734949999999999,-0.0430959999999999,9.773131
0.3830719999999999,-0.02873,9.77792
0.378284,-0.0239419999999999,9.773131
0.344765,-0.0430959999999999,9.763555
0.469264,-0.086191,9.730036
0.3734949999999999,-0.062249,9.763555
0.368707,-0.004788,9.744401
0.407014,0.071826,9.725247
0.3926489999999999,-0.033519,9.739613
0.378284,-0.0239419999999999,9.739613
0.3926489999999999,-0.033519,9.763555
0.387861,-0.0430959999999999,9.734824
0.3830719999999999,-0.019154,9.725247
0.411803,0.019154,9.744401
0.320823,-0.1005559999999999,9.758766
0.344765,-0.009577,9.753978
0.3734949999999999,0.009577,9.758766
0.416591,-0.033519,9.753978
0.368707,-0.014365,9.768343
0.378284,-0.0239419999999999,9.730036
0.560243,-0.205901,9.797073
0.268151,0.086191,9.725247
0.368707,-0.004788,9.77792
0.411803,-0.057461,9.77792
0.469264,-0.076614,9.80665
0.397437,-0.02873,9.720459
0.35913,-0.0239419999999999,9.821015
0.387861,-0.009577,9.768343
0.3734949999999999,-0.0430959999999999,9.773131
0.3830719999999999,-0.02873,9.77792
0.378284,-0.0239419999999999,9.773131
0.344765,-0.0430959999999999,9.763555
0.469264,-0.086191,9.730036
0.3734949999999999,-0.062249,9.763555
0.368707,-0.004788,9.744401
0.407014,0.071826,9.725247
0.3926489999999999,-0.033519,9.739613
0.378284,-0.0239419999999999,9.739613
0.416591,-0.0239419999999999,9.77792
0.387861,-0.004788,9.763555
-0.105345,0.225055,9.753978
-0.086191,0.234632,9.77792
-0.076614,0.225055,9.744401
-0.114922,0.225055,9.753978
-0.081403,0.196325,9.782708
-0.124498,0.225055,9.768343
-0.1005559999999999,0.201113,9.763555
-0.124498,0.215478,9.773131
-0.11971,0.220267,9.744401
-0.105345,0.220267,9.792285
-0.086191,0.21069,9.773131
-0.114922,0.215478,9.768343
-0.062249,0.177171,9.768343
-0.1005559999999999,0.220267,9.77792
-0.0957679999999999,0.177171,9.792285
-0.086191,0.23942,9.77792
-0.1005559999999999,0.234632,9.763555
-0.067038,0.244209,9.773131
-0.110133,0.229843,9.792285
-0.105345,0.215478,9.782708
-0.1005559999999999,0.225055,9.768343
-0.1005559999999999,0.225055,9.753978
-0.0957679999999999,0.225055,9.787497
-0.110133,0.21069,9.758766
-0.11971,0.234632,9.758766
-0.105345,0.21069,9.763555
-0.110133,0.234632,9.782708
-0.105345,0.23942,9.739613
-0.1292869999999999,0.23942,9.782708
-0.11971,0.234632,9.792285
0.3830719999999999,-0.019154,9.725247
0.411803,0.019154,9.744401
0.320823,-0.1005559999999999,9.758766
0.344765,-0.009577,9.753978
0.3734949999999999,0.009577,9.758766
0.416591,-0.033519,9.753978
0.368707,-0.014365,9.768343
0.378284,-0.0239419999999999,9.730036
0.560243,-0.205901,9.797073
0.268151,0.086191,9.725247
0.368707,-0.004788,9.77792
0.411803,-0.057461,9.77792
0.469264,-0.076614,9.80665
0.397437,-0.02873,9.720459
0.35913,-0.0239419999999999,9.821015
0.387861,-0.009577,9.768343
0.3734949999999999,-0.0430959999999999,9.773131
0.3830719999999999,-0.02873,9.77792
0.378284,-0.0239419999999999,9.773131
0.344765,-0.0430959999999999,9.763555
0.469264,-0.086191,9.730036
0.3734949999999999,-0.062249,9.763555
0.368707,-0.004788,9.744401
0.407014,0.071826,9.725247
0.3926489999999999,-0.033519,9.739613
0.378284,-0.0239419999999999,9.739613
0.416591,-0.0239419999999999,9.77792
0.387861,-0.004788,9.763555
0.3734949999999999,0.004788,9.758766
0.402226,-0.019154,9.763555
0.320823,-0.1005559999999999,9.758766
0.344765,-0.009577,9.753978
0.3734949999999999,0.009577,9.758766
0.416591,-0.033519,9.753978
0.368707,-0.014365,9.768343
0.378284,-0.0239419999999999,9.730036
0.560243,-0.205901,9.797073
0.268151,0.086191,9.725247
0.368707,-0.004788,9.77792
0.411803,-0.057461,9.77792
0.469264,-0.076614,9.80665
0.397437,-0.02873,9.720459
0.35913,-0.0239419999999999,9.821015
0.387861,-0.009577,9.768343
0.3734949999999999,-0.0430959999999999,9.773131
0.3830719999999999,-0.02873,9.77792
0.378284,-0.0239419999999999,9.773131
0.344765,-0.0430959999999999,9.763555
0.469264,-0.086191,9.730036
0.3734949999999999,-0.062249,9.763555
0.368707,-0.004788,9.744401
0.407014,0.071826,9.725247
0.3926489999999999,-0.033519,9.739613
0.378284,-0.0239419999999999,9.739613
0.416591,-0.0239419999999999,9.77792
0.387861,-0.004788,9.763555
0.3734949999999999,0.004788,9.758766
0.402226,-0.019154,9.763555
0.42138,-0.014365,9.763555
0.378284,-0.009577,9.749189
0.3734949999999999,0.009577,9.758766
0.416591,-0.033519,9.753978
0.368707,-0.014365,9.768343
0.378284,-0.0239419999999999,9.730036
0.560243,-0.205901,9.797073
0.268151,0.086191,9.725247
0.368707,-0.004788,9.77792
0.411803,-0.057461,9.77792
0.469264,-0.076614,9.80665
0.397437,-0.02873,9.720459
0.35913,-0.0239419999999999,9.821015
0.387861,-0.009577,9.768343
0.3734949999999999,-0.0430959999999999,9.773131
0.3830719999999999,-0.02873,9.77792
0.378284,-0.0239419999999999,9.773131
0.344765,-0.0430959999999999,9.763555
0.469264,-0.086191,9.730036
0.3734949999999999,-0.062249,9.763555
0.368707,-0.004788,9.744401
0.407014,0.071826,9.725247
0.3926489999999999,-0.033519,9.739613
0.378284,-0.0239419999999999,9.739613
0.416591,-0.0239419999999999,9.77792
0.387861,-0.004788,9.763555
0.3734949999999999,0.004788,9.758766
0.402226,-0.019154,9.763555
0.42138,-0.014365,9.763555
0.378284,-0.009577,9.749189
0.387861,-0.033519,9.744401
0.3926489999999999,-0.019154,9.749189
0.368707,-0.014365,9.768343
0.378284,-0.0239419999999999,9.730036
0.560243,-0.205901,9.797073
0.268151,0.086191,9.725247
0.368707,-0.004788,9.77792
0.411803,-0.057461,9.77792
0.469264,-0.076614,9.80665
0.397437,-0.02873,9.720459
0.35913,-0.0239419999999999,9.821015
0.387861,-0.009577,9.768343
0.3734949999999999,-0.0430959999999999,9.773131
0.3830719999999999,-0.02873,9.77792
0.378284,-0.0239419999999999,9.773131
0.344765,-0.0430959999999999,9.763555
0.469264,-0.086191,9.730036
0.3734949999999999,-0.062249,9.763555
0.368707,-0.004788,9.744401
0.407014,0.071826,9.725247
0.3926489999999999,-0.033519,9.739613
0.378284,-0.0239419999999999,9.739613
0.416591,-0.0239419999999999,9.77792
0.387861,-0.004788,9.763555
0.3734949999999999,0.004788,9.758766
0.402226,-0.019154,9.763555
0.42138,-0.014365,9.763555
0.378284,-0.009577,9.749189
0.387861,-0.033519,9.744401
0.3926489999999999,-0.019154,9.749189
0.378284,0.019154,9.773131
0.3926489999999999,-0.0478839999999999,9.77792
0.560243,-0.205901,9.797073
0.268151,0.086191,9.725247
0.368707,-0.004788,9.77792
0.411803,-0.057461,9.77792
0.469264,-0.076614,9.80665
0.397437,-0.02873,9.720459
0.35913,-0.0239419999999999,9.821015
0.387861,-0.009577,9.768343
0.3734949999999999,-0.0430959999999999,9.773131
0.3830719999999999,-0.02873,9.77792
0.378284,-0.0239419999999999,9.773131
0.344765,-0.0430959999999999,9.763555
0.469264,-0.086191,9.730036
0.3734949999999999,-0.062249,9.763555
0.368707,-0.004788,9.744401
0.407014,0.071826,9.725247
0.3926489999999999,-0.033519,9.739613
0.378284,-0.0239419999999999,9.739613
0.416591,-0.0239419999999999,9.77792
0.387861,-0.004788,9.763555
0.3734949999999999,0.004788,9.758766
0.402226,-0.019154,9.763555
0.42138,-0.014365,9.763555
0.378284,-0.009577,9.749189
0.387861,-0.033519,9.744401
0.3926489999999999,-0.019154,9.749189
0.378284,0.019154,9.773131
0.3926489999999999,-0.0478839999999999,9.77792
0.3926489999999999,-0.004788,9.749189
0.397437,-0.0239419999999999,9.768343
0.368707,-0.004788,9.77792
0.411803,-0.057461,9.77792
0.469264,-0.076614,9.80665
0.397437,-0.02873,9.720459
0.35913,-0.0239419999999999,9.821015
0.387861,-0.009577,9.768343
0.3734949999999999,-0.0430959999999999,9.773131
0.3830719999999999,-0.02873,9.77792
0.378284,-0.0239419999999999,9.773131
0.344765,-0.0430959999999999,9.763555
0.469264,-0.086191,9.730036
0.3734949999999999,-0.062249,9.763555
0.368707,-0.004788,9.744401
0.407014,0.071826,9.725247
0.3926489999999999,-0.033519,9.739613
0.378284,-0.0239419999999999,9.739613
0.416591,-0.0239419999999999,9.77792
0.387861,-0.004788,9.763555
0.3734949999999999,0.004788,9.758766
0.402226,-0.019154,9.763555
0.42138,-0.014365,9.763555
0.378284,-0.009577,9.749189
0.387861,-0.033519,9.744401
0.3926489999999999,-0.019154,9.749189
0.378284,0.019154,9.773131
0.3926489999999999,-0.0478839999999999,9.77792
0.3926489999999999,-0.004788,9.749189
0.397437,-0.0239419999999999,9.768343
0.407014,-0.019154,9.730036
0.387861,-0.0239419999999999,9.749189
0.469264,-0.076614,9.80665
0.397437,-0.02873,9.720459
0.35913,-0.0239419999999999,9.821015
0.387861,-0.009577,9.768343
0.3734949999999999,-0.0430959999999999,9.773131
0.3830719999999999,-0.02873,9.77792
0.378284,-0.0239419999999999,9.773131
0.344765,-0.0430959999999999,9.763555
0.469264,-0.086191,9.730036
0.3734949999999999,-0.062249,9.763555
0.368707,-0.004788,9.744401
0.407014,0.071826,9.725247
0.3926489999999999,-0.033519,9.739613
0.378284,-0.0239419999999999,9.739613
0.416591,-0.0239419999999999,9.77792
0.387861,-0.004788,9.763555
0.3734949999999999,0.004788,9.758766
0.402226,-0.019154,9.763555
0.42138,-0.014365,9.763555
0.378284,-0.009577,9.749189
0.387861,-0.033519,9.744401
0.3926489999999999,-0.019154,9.749189
0.378284,0.019154,9.773131
0.3926489999999999,-0.0478839999999999,9.77792
0.3926489999999999,-0.004788,9.749189
0.397437,-0.0239419999999999,9.768343
0.407014,-0.019154,9.730036
0.387861,-0.0239419999999999,9.749189
0.411803,-0.086191,9.734824
0.378284,0.0239419999999999,9.782708
0.35913,-0.0239419999999999,9.821015
0.387861,-0.009577,9.768343
0.3734949999999999,-0.0430959999999999,9.773131
0.3830719999999999,-0.02873,9.77792
0.378284,-0.0239419999999999,9.773131
0.344765,-0.0430959999999999,9.763555
0.469264,-0.086191,9.730036
0.3734949999999999,-0.062249,9.763555
0.368707,-0.004788,9.744401
0.407014,0.071826,9.725247
0.3926489999999999,-0.033519,9.739613
0.378284,-0.0239419999999999,9.739613
0.416591,-0.0239419999999999,9.77792
0.387861,-0.004788,9.763555
0.3734949999999999,0.004788,9.758766
0.402226,-0.019154,9.763555
0.42138,-0.014365,9.763555
0.378284,-0.009577,9.749189
0.387861,-0.033519,9.744401
0.3926489999999999,-0.019154,9.749189
0.378284,0.019154,9.773131
0.3926489999999999,-0.0478839999999999,9.77792
0.3926489999999999,-0.004788,9.749189
0.397437,-0.0239419999999999,9.768343
0.407014,-0.019154,9.730036
0.387861,-0.0239419999999999,9.749189
0.411803,-0.086191,9.734824
0.378284,0.0239419999999999,9.782708
0.3830719999999999,0.019154,9.763555
0.407014,-0.052672,9.734824
0.3734949999999999,-0.0430959999999999,9.773131
0.3830719999999999,-0.02873,9.77792
0.378284,-0.0239419999999999,9.773131
0.344765,-0.0430959999999999,9.763555
0.469264,-0.086191,9.730036
0.3734949999999999,-0.062249,9.763555
0.368707,-0.004788,9.744401
0.407014,0.071826,9.725247
0.3926489999999999,-0.033519,9.739613
0.378284,-0.0239419999999999,9.739613
0.416591,-0.0239419999999999,9.77792
0.387861,-0.004788,9.763555
0.3734949999999999,0.004788,9.758766
0.402226,-0.019154,9.763555
0.42138,-0.014365,9.763555
0.378284,-0.009577,9.749189
0.387861,-0.033519,9.744401
0.3926489999999999,-0.019154,9.749189
0.378284,0.019154,9.773131
0.3926489999999999,-0.0478839999999999,9.77792
0.3926489999999999,-0.004788,9.749189
0.397437,-0.0239419999999999,9.768343
0.407014,-0.019154,9.730036
0.387861,-0.0239419999999999,9.749189
0.411803,-0.086191,9.734824
0.378284,0.0239419999999999,9.782708
0.3830719999999999,0.019154,9.763555
0.407014,-0.052672,9.734824
0.397437,-0.019154,9.753978
0.3830719999999999,0.009577,9.749189
0.378284,-0.0239419999999999,9.773131
0.344765,-0.0430959999999999,9.763555
0.469264,-0.086191,9.730036
0.3734949999999999,-0.062249,9.763555
0.368707,-0.004788,9.744401
0.407014,0.071826,9.725247
0.3926489999999999,-0.033519,9.739613
0.378284,-0.0239419999999999,9.739613
0.416591,-0.0239419999999999,9.77792
0.387861,-0.004788,9.763555
0.3734949999999999,0.004788,9.758766
0.402226,-0.019154,9.763555
0.42138,-0.014365,9.763555
0.378284,-0.009577,9.749189
0.387861,-0.033519,9.744401
0.3926489999999999,-0.019154,9.749189
0.378284,0.019154,9.773131
0.3926489999999999,-0.0478839999999999,9.77792
0.3926489999999999,-0.004788,9.749189
0.397437,-0.0239419999999999,9.768343
0.407014,-0.019154,9.730036
0.387861,-0.0239419999999999,9.749189
0.411803,-0.086191,9.734824
0.378284,0.0239419999999999,9.782708
0.3830719999999999,0.019154,9.763555
0.407014,-0.052672,9.734824
0.397437,-0.019154,9.753978
0.3830719999999999,0.009577,9.749189
0.363919,0.0239419999999999,9.787497
0.3926489999999999,-0.02873,9.725247
-0.076614,0.225055,9.744401
-0.114922,0.225055,9.753978
-0.081403,0.196325,9.782708
-0.124498,0.225055,9.768343
-0.1005559999999999,0.201113,9.763555
-0.124498,0.215478,9.773131
-0.11971,0.220267,9.744401
-0.105345,0.220267,9.792285
-0.086191,0.21069,9.773131
-0.114922,0.215478,9.768343
-0.062249,0.177171,9.768343
-0.1005559999999999,0.220267,9.77792
-0.0957679999999999,0.177171,9.792285
-0.086191,0.23942,9.77792
-0.1005559999999999,0.234632,9.763555
-0.067038,0.244209,9.773131
-0.110133,0.229843,9.792285
-0.105345,0.215478,9.782708
-0.1005559999999999,0.225055,9.768343
-0.1005559999999999,0.225055,9.753978
-0.0957679999999999,0.225055,9.787497
-0.110133,0.21069,9.758766
-0.11971,0.234632,9.758766
-0.105345,0.21069,9.763555
-0.110133,0.234632,9.782708
-0.105345,0.23942,9.739613
-0.1292869999999999,0.23942,9.782708
-0.11971,0.234632,9.792285
-0.0957679999999999,0.23942,9.739613
-0.0909799999999999,0.234632,9.773131
0.469264,-0.086191,9.730036
0.3734949999999999,-0.062249,9.763555
0.368707,-0.004788,9.744401
0.407014,0.071826,9.725247
0.3926489999999999,-0.033519,9.739613
0.378284,-0.0239419999999999,9.739613
0.416591,-0.0239419999999999,9.77792
0.387861,-0.004788,9.763555
0.3734949999999999,0.004788,9.758766
0.402226,-0.019154,9.763555
0.42138,-0.014365,9.763555
0.378284,-0.009577,9.749189
0.387861,-0.033519,9.744401
0.3926489999999999,-0.019154,9.749189
0.378284,0.019154,9.773131
0.3926489999999999,-0.0478839999999999,9.77792
0.3926489999999999,-0.004788,9.749189
0.397437,-0.0239419999999999,9.768343
0.407014,-0.019154,9.730036
0.387861,-0.0239419999999999,9.749189
0.411803,-0.086191,9.734824
0.378284,0.0239419999999999,9.782708
0.3830719999999999,0.019154,9.763555
0.407014,-0.052672,9.734824
0.397437,-0.019154,9.753978
0.3830719999999999,0.009577,9.749189
0.363919,0.0239419999999999,9.787497
0.3926489999999999,-0.02873,9.725247
0.426168,-0.0430959999999999,9.768343
0.426168,0.004788,9.739613
0.368707,-0.004788,9.744401
0.407014,0.071826,9.725247
0.3926489999999999,-0.033519,9.739613
0.378284,-0.0239419999999999,9.739613
0.416591,-0.0239419999999999,9.77792
0.387861,-0.004788,9.763555
0.3734949999999999,0.004788,9.758766
0.402226,-0.019154,9.763555
0.42138,-0.014365,9.763555
0.378284,-0.009577,9.749189
0.387861,-0.033519,9.744401
0.3926489999999999,-0.019154,9.749189
0.378284,0.019154,9.773131
0.3926489999999999,-0.0478839999999999,9.77792
0.3926489999999999,-0.004788,9.749189
0.397437,-0.0239419999999999,9.768343
0.407014,-0.019154,9.730036
0.387861,-0.0239419999999999,9.749189
0.411803,-0.086191,9.734824
0.378284,0.0239419999999999,9.782708
0.3830719999999999,0.019154,9.763555
0.407014,-0.052672,9.734824
0.397437,-0.019154,9.753978
0.3830719999999999,0.009577,9.749189
0.363919,0.0239419999999999,9.787497
0.3926489999999999,-0.02873,9.725247
0.426168,-0.0430959999999999,9.768343
0.426168,0.004788,9.739613
0.378284,-0.014365,9.744401
0.459687,-0.0430959999999999,9.763555
0.3926489999999999,-0.033519,9.739613
0.378284,-0.0239419999999999,9.739613
0.416591,-0.0239419999999999,9.77792
0.387861,-0.004788,9.763555
0.3734949999999999,0.004788,9.758766
0.402226,-0.019154,9.763555
0.42138,-0.014365,9.763555
0.378284,-0.009577,9.749189
0.387861,-0.033519,9.744401
0.3926489999999999,-0.019154,9.749189
0.378284,0.019154,9.773131
0.3926489999999999,-0.0478839999999999,9.77792
0.3926489999999999,-0.004788,9.749189
0.397437,-0.0239419999999999,9.768343
0.407014,-0.019154,9.730036
0.387861,-0.0239419999999999,9.749189
0.411803,-0.086191,9.734824
0.378284,0.0239419999999999,9.782708
0.3830719999999999,0.019154,9.763555
0.407014,-0.052672,9.734824
0.397437,-0.019154,9.753978
0.3830719999999999,0.009577,9.749189
0.363919,0.0239419999999999,9.787497
0.3926489999999999,-0.02873,9.725247
0.426168,-0.0430959999999999,9.768343
0.426168,0.004788,9.739613
0.378284,-0.014365,9.744401
0.459687,-0.0430959999999999,9.763555
0.363919,0.014365,9.710882000000002
0.42138,-0.02873,9.758766
0.416591,-0.0239419999999999,9.77792
0.387861,-0.004788,9.763555
0.3734949999999999,0.004788,9.758766
0.402226,-0.019154,9.763555
0.42138,-0.014365,9.763555
0.378284,-0.009577,9.749189
0.387861,-0.033519,9.744401
0.3926489999999999,-0.019154,9.749189
0.378284,0.019154,9.773131
0.3926489999999999,-0.0478839999999999,9.77792
0.3926489999999999,-0.004788,9.749189
0.397437,-0.0239419999999999,9.768343
0.407014,-0.019154,9.730036
0.387861,-0.0239419999999999,9.749189
0.411803,-0.086191,9.734824
0.378284,0.0239419999999999,9.782708
0.3830719999999999,0.019154,9.763555
0.407014,-0.052672,9.734824
0.397437,-0.019154,9.753978
0.3830719999999999,0.009577,9.749189
0.363919,0.0239419999999999,9.787497
0.3926489999999999,-0.02873,9.725247
0.426168,-0.0430959999999999,9.768343
0.426168,0.004788,9.739613
0.378284,-0.014365,9.744401
0.459687,-0.0430959999999999,9.763555
0.363919,0.014365,9.710882000000002
0.42138,-0.02873,9.758766
0.435745,-0.062249,9.773131
0.397437,0.009577,9.734824
0.3734949999999999,0.004788,9.758766
0.402226,-0.019154,9.763555
0.42138,-0.014365,9.763555
0.378284,-0.009577,9.749189
0.387861,-0.033519,9.744401
0.3926489999999999,-0.019154,9.749189
0.378284,0.019154,9.773131
0.3926489999999999,-0.0478839999999999,9.77792
0.3926489999999999,-0.004788,9.749189
0.397437,-0.0239419999999999,9.768343
0.407014,-0.019154,9.730036
0.387861,-0.0239419999999999,9.749189
0.411803,-0.086191,9.734824
0.378284,0.0239419999999999,9.782708
0.3830719999999999,0.019154,9.763555
0.407014,-0.052672,9.734824
0.397437,-0.019154,9.753978
0.3830719999999999,0.009577,9.749189
0.363919,0.0239419999999999,9.787497
0.3926489999999999,-0.02873,9.725247
0.426168,-0.0430959999999999,9.768343
0.426168,0.004788,9.739613
0.378284,-0.014365,9.744401
0.459687,-0.0430959999999999,9.763555
0.363919,0.014365,9.710882000000002
0.42138,-0.02873,9.758766
0.435745,-0.062249,9.773131
0.397437,0.009577,9.734824
0.402226,-0.02873,9.773131
0.3926489999999999,-0.009577,9.749189
0.42138,-0.014365,9.763555
0.378284,-0.009577,9.749189
0.387861,-0.033519,9.744401
0.3926489999999999,-0.019154,9.749189
0.378284,0.019154,9.773131
0.3926489999999999,-0.0478839999999999,9.77792
0.3926489999999999,-0.004788,9.749189
0.397437,-0.0239419999999999,9.768343
0.407014,-0.019154,9.730036
0.387861,-0.0239419999999999,9.749189
0.411803,-0.086191,9.734824
0.378284,0.0239419999999999,9.782708
0.3830719999999999,0.019154,9.763555
0.407014,-0.052672,9.734824
0.397437,-0.019154,9.753978
0.3830719999999999,0.009577,9.749189
0.363919,0.0239419999999999,9.787497
0.3926489999999999,-0.02873,9.725247
0.426168,-0.0430959999999999,9.768343
0.426168,0.004788,9.739613
0.378284,-0.014365,9.744401
0.459687,-0.0430959999999999,9.763555
0.363919,0.014365,9.710882000000002
0.42138,-0.02873,9.758766
0.435745,-0.062249,9.773131
0.397437,0.009577,9.734824
0.402226,-0.02873,9.773131
0.3926489999999999,-0.009577,9.749189
0.402226,-0.014365,9.749189
0.378284,-0.0430959999999999,9.758766
0.387861,-0.033519,9.744401
0.3926489999999999,-0.019154,9.749189
0.378284,0.019154,9.773131
0.3926489999999999,-0.0478839999999999,9.77792
0.3926489999999999,-0.004788,9.749189
0.397437,-0.0239419999999999,9.768343
0.407014,-0.019154,9.730036
0.387861,-0.0239419999999999,9.749189
0.411803,-0.086191,9.734824
0.378284,0.0239419999999999,9.782708
0.3830719999999999,0.019154,9.763555
0.407014,-0.052672,9.734824
0.397437,-0.019154,9.753978
0.3830719999999999,0.009577,9.749189
0.363919,0.0239419999999999,9.787497
0.3926489999999999,-0.02873,9.725247
0.426168,-0.0430959999999999,9.768343
0.426168,0.004788,9.739613
0.378284,-0.014365,9.744401
0.459687,-0.0430959999999999,9.763555
0.363919,0.014365,9.710882000000002
0.42138,-0.02873,9.758766
0.435745,-0.062249,9.773131
0.397437,0.009577,9.734824
0.402226,-0.02873,9.773131
0.3926489999999999,-0.009577,9.749189
0.402226,-0.014365,9.749189
0.378284,-0.0430959999999999,9.758766
0.416591,0.009577,9.749189
0.416591,-0.009577,9.739613
0.378284,0.019154,9.773131
0.3926489999999999,-0.0478839999999999,9.77792
0.3926489999999999,-0.004788,9.749189
0.397437,-0.0239419999999999,9.768343
0.407014,-0.019154,9.730036
0.387861,-0.0239419999999999,9.749189
0.411803,-0.086191,9.734824
0.378284,0.0239419999999999,9.782708
0.3830719999999999,0.019154,9.763555
0.407014,-0.052672,9.734824
0.397437,-0.019154,9.753978
0.3830719999999999,0.009577,9.749189
0.363919,0.0239419999999999,9.787497
0.3926489999999999,-0.02873,9.725247
0.426168,-0.0430959999999999,9.768343
0.426168,0.004788,9.739613
0.378284,-0.014365,9.744401
0.459687,-0.0430959999999999,9.763555
0.363919,0.014365,9.710882000000002
0.42138,-0.02873,9.758766
0.435745,-0.062249,9.773131
0.397437,0.009577,9.734824
0.402226,-0.02873,9.773131
0.3926489999999999,-0.009577,9.749189
0.402226,-0.014365,9.749189
0.378284,-0.0430959999999999,9.758766
0.416591,0.009577,9.749189
0.416591,-0.009577,9.739613
0.402226,-0.009577,9.749189
0.378284,-0.019154,9.749189
0.3926489999999999,-0.004788,9.749189
0.397437,-0.0239419999999999,9.768343
0.407014,-0.019154,9.730036
0.387861,-0.0239419999999999,9.749189
0.411803,-0.086191,9.734824
0.378284,0.0239419999999999,9.782708
0.3830719999999999,0.019154,9.763555
0.407014,-0.052672,9.734824
0.397437,-0.019154,9.753978
0.3830719999999999,0.009577,9.749189
0.363919,0.0239419999999999,9.787497
0.3926489999999999,-0.02873,9.725247
0.426168,-0.0430959999999999,9.768343
0.426168,0.004788,9.739613
0.378284,-0.014365,9.744401
0.459687,-0.0430959999999999,9.763555
0.363919,0.014365,9.710882000000002
0.42138,-0.02873,9.758766
0.435745,-0.062249,9.773131
0.397437,0.009577,9.734824
0.402226,-0.02873,9.773131
0.3926489999999999,-0.009577,9.749189
0.402226,-0.014365,9.749189
0.378284,-0.0430959999999999,9.758766
0.416591,0.009577,9.749189
0.416591,-0.009577,9.739613
0.402226,-0.009577,9.749189
0.378284,-0.019154,9.749189
0.407014,-0.033519,9.758766
0.387861,0.02873,9.782708
0.407014,-0.019154,9.730036
0.387861,-0.0239419999999999,9.749189
0.411803,-0.086191,9.734824
0.378284,0.0239419999999999,9.782708
0.3830719999999999,0.019154,9.763555
0.407014,-0.052672,9.734824
0.397437,-0.019154,9.753978
0.3830719999999999,0.009577,9.749189
0.363919,0.0239419999999999,9.787497
0.3926489999999999,-0.02873,9.725247
0.426168,-0.0430959999999999,9.768343
0.426168,0.004788,9.739613
0.378284,-0.014365,9.744401
0.459687,-0.0430959999999999,9.763555
0.363919,0.014365,9.710882000000002
0.42138,-0.02873,9.758766
0.435745,-0.062249,9.773131
0.397437,0.009577,9.734824
0.402226,-0.02873,9.773131
0.3926489999999999,-0.009577,9.749189
0.402226,-0.014365,9.749189
0.378284,-0.0430959999999999,9.758766
0.416591,0.009577,9.749189
0.416591,-0.009577,9.739613
0.402226,-0.009577,9.749189
0.378284,-0.019154,9.749189
0.407014,-0.033519,9.758766
0.387861,0.02873,9.782708
0.426168,-0.019154,9.773131
0.411803,-0.009577,9.758766
-0.081403,0.196325,9.782708
-0.124498,0.225055,9.768343
-0.1005559999999999,0.201113,9.763555
-0.124498,0.215478,9.773131
-0.11971,0.220267,9.744401
-0.105345,0.220267,9.792285
-0.086191,0.21069,9.773131
-0.114922,0.215478,9.768343
-0.062249,0.177171,9.768343
-0.1005559999999999,0.220267,9.77792
-0.0957679999999999,0.177171,9.792285
-0.086191,0.23942,9.77792
-0.1005559999999999,0.234632,9.763555
-0.067038,0.244209,9.773131
-0.110133,0.229843,9.792285
-0.105345,0.215478,9.782708
-0.1005559999999999,0.225055,9.768343
-0.1005559999999999,0.225055,9.753978
-0.0957679999999999,0.225055,9.787497
-0.110133,0.21069,9.758766
-0.11971,0.234632,9.758766
-0.105345,0.21069,9.763555
-0.110133,0.234632,9.782708
-0.105345,0.23942,9.739613
-0.1292869999999999,0.23942,9.782708
-0.11971,0.234632,9.792285
-0.0957679999999999,0.23942,9.739613
-0.0909799999999999,0.234632,9.773131
-0.105345,0.225055,9.758766
-0.114922,0.205901,9.768343
0.411803,-0.086191,9.734824
0.378284,0.0239419999999999,9.782708
0.3830719999999999,0.019154,9.763555
0.407014,-0.052672,9.734824
0.397437,-0.019154,9.753978
0.3830719999999999,0.009577,9.749189
0.363919,0.0239419999999999,9.787497
0.3926489999999999,-0.02873,9.725247
0.426168,-0.0430959999999999,9.768343
0.426168,0.004788,9.739613
0.378284,-0.014365,9.744401
0.459687,-0.0430959999999999,9.763555
0.363919,0.014365,9.710882000000002
0.42138,-0.02873,9.758766
0.435745,-0.062249,9.773131
0.397437,0.009577,9.734824
0.402226,-0.02873,9.773131
0.3926489999999999,-0.009577,9.749189
0.402226,-0.014365,9.749189
0.378284,-0.0430959999999999,9.758766
0.416591,0.009577,9.749189
0.416591,-0.009577,9.739613
0.402226,-0.009577,9.749189
0.378284,-0.019154,9.749189
0.407014,-0.033519,9.758766
0.387861,0.02873,9.782708
0.426168,-0.019154,9.773131
0.411803,-0.009577,9.758766
0.397437,-0.004788,9.739613
0.344765,-0.0239419999999999,9.773131
0.3830719999999999,0.019154,9.763555
0.407014,-0.052672,9.734824
0.397437,-0.019154,9.753978
0.3830719999999999,0.009577,9.749189
0.363919,0.0239419999999999,9.787497
0.3926489999999999,-0.02873,9.725247
0.426168,-0.0430959999999999,9.768343
0.426168,0.004788,9.739613
0.378284,-0.014365,9.744401
0.459687,-0.0430959999999999,9.763555
0.363919,0.014365,9.710882000000002
0.42138,-0.02873,9.758766
0.435745,-0.062249,9.773131
0.397437,0.009577,9.734824
0.402226,-0.02873,9.773131
0.3926489999999999,-0.009577,9.749189
0.402226,-0.014365,9.749189
0.378284,-0.0430959999999999,9.758766
0.416591,0.009577,9.749189
0.416591,-0.009577,9.739613
0.402226,-0.009577,9.749189
0.378284,-0.019154,9.749189
0.407014,-0.033519,9.758766
0.387861,0.02873,9.782708
0.426168,-0.019154,9.773131
0.411803,-0.009577,9.758766
0.397437,-0.004788,9.739613
0.344765,-0.0239419999999999,9.773131
0.368707,-0.0239419999999999,9.739613
0.411803,-0.014365,9.749189
0.397437,-0.019154,9.753978
0.3830719999999999,0.009577,9.749189
0.363919,0.0239419999999999,9.787497
0.3926489999999999,-0.02873,9.725247
0.426168,-0.0430959999999999,9.768343
0.426168,0.004788,9.739613
0.378284,-0.014365,9.744401
0.459687,-0.0430959999999999,9.763555
0.363919,0.014365,9.710882000000002
0.42138,-0.02873,9.758766
0.435745,-0.062249,9.773131
0.397437,0.009577,9.734824
0.402226,-0.02873,9.773131
0.3926489999999999,-0.009577,9.749189
0.402226,-0.014365,9.749189
0.378284,-0.0430959999999999,9.758766
0.416591,0.009577,9.749189
0.416591,-0.009577,9.739613
0.402226,-0.009577,9.749189
0.378284,-0.019154,9.749189
0.407014,-0.033519,9.758766
0.387861,0.02873,9.782708
0.426168,-0.019154,9.773131
0.411803,-0.009577,9.758766
0.397437,-0.004788,9.739613
0.344765,-0.0239419999999999,9.773131
0.368707,-0.0239419999999999,9.739613
0.411803,-0.014365,9.749189
0.493206,0.0239419999999999,9.749189
0.387861,-0.019154,9.77792
0.363919,0.0239419999999999,9.787497
0.3926489999999999,-0.02873,9.725247
0.426168,-0.0430959999999999,9.768343
0.426168,0.004788,9.739613
0.378284,-0.014365,9.744401
0.459687,-0.0430959999999999,9.763555
0.363919,0.014365,9.710882000000002
0.42138,-0.02873,9.758766
0.435745,-0.062249,9.773131
0.397437,0.009577,9.734824
0.402226,-0.02873,9.773131
0.3926489999999999,-0.009577,9.749189
0.402226,-0.014365,9.749189
0.378284,-0.0430959999999999,9.758766
0.416591,0.009577,9.749189
0.416591,-0.009577,9.739613
0.402226,-0.009577,9.749189
0.378284,-0.019154,9.749189
0.407014,-0.033519,9.758766
0.387861,0.02873,9.782708
0.426168,-0.019154,9.773131
0.411803,-0.009577,9.758766
0.397437,-0.004788,9.739613
0.344765,-0.0239419999999999,9.773131
0.368707,-0.0239419999999999,9.739613
0.411803,-0.014365,9.749189
0.493206,0.0239419999999999,9.749189
0.387861,-0.019154,9.77792
0.407014,-0.057461,9.782708
0.42138,-0.02873,9.77792
0.426168,-0.0430959999999999,9.768343
0.426168,0.004788,9.739613
0.378284,-0.014365,9.744401
0.459687,-0.0430959999999999,9.763555
0.363919,0.014365,9.710882000000002
0.42138,-0.02873,9.758766
0.435745,-0.062249,9.773131
0.397437,0.009577,9.734824
0.402226,-0.02873,9.773131
0.3926489999999999,-0.009577,9.749189
0.402226,-0.014365,9.749189
0.378284,-0.0430959999999999,9.758766
0.416591,0.009577,9.749189
0.416591,-0.009577,9.739613
0.402226,-0.009577,9.749189
0.378284,-0.019154,9.749189
0.407014,-0.033519,9.758766
0.387861,0.02873,9.782708
0.426168,-0.019154,9.773131
0.411803,-0.009577,9.758766
0.397437,-0.004788,9.739613
0.344765,-0.0239419999999999,9.773131
0.368707,-0.0239419999999999,9.739613
0.411803,-0.014365,9.749189
0.493206,0.0239419999999999,9.749189
0.387861,-0.019154,9.77792
0.407014,-0.057461,9.782708
0.42138,-0.02873,9.77792
0.387861,-0.033519,9.749189
0.3926489999999999,-0.033519,9.763555
0.378284,-0.014365,9.744401
0.459687,-0.0430959999999999,9.763555
0.363919,0.014365,9.710882000000002
0.42138,-0.02873,9.758766
0.435745,-0.062249,9.773131
0.397437,0.009577,9.734824
0.402226,-0.02873,9.773131
0.3926489999999999,-0.009577,9.749189
0.402226,-0.014365,9.749189
0.378284,-0.0430959999999999,9.758766
0.416591,0.009577,9.749189
0.416591,-0.009577,9.739613
0.402226,-0.009577,9.749189
0.378284,-0.019154,9.749189
0.407014,-0.033519,9.758766
0.387861,0.02873,9.782708
0.426168,-0.019154,9.773131
0.411803,-0.009577,9.758766
0.397437,-0.004788,9.739613
0.344765,-0.0239419999999999,9.773131
0.368707,-0.0239419999999999,9.739613
0.411803,-0.014365,9.749189
0.493206,0.0239419999999999,9.749189
0.387861,-0.019154,9.77792
0.407014,-0.057461,9.782708
0.42138,-0.02873,9.77792
0.387861,-0.033519,9.749189
0.3926489999999999,-0.033519,9.763555
-0.153229,-1.4604629999999998,12.248735
-2.504335,-2.30801,11.334151
0.363919,0.014365,9.710882000000002
0.42138,-0.02873,9.758766
0.435745,-0.062249,9.773131
0.397437,0.009577,9.734824
0.402226,-0.02873,9.773131
0.3926489999999999,-0.009577,9.749189
0.402226,-0.014365,9.749189
0.378284,-0.0430959999999999,9.758766
0.416591,0.009577,9.749189
0.416591,-0.009577,9.739613
0.402226,-0.009577,9.749189
0.378284,-0.019154,9.749189
0.407014,-0.033519,9.758766
0.387861,0.02873,9.782708
0.426168,-0.019154,9.773131
0.411803,-0.009577,9.758766
0.397437,-0.004788,9.739613
0.344765,-0.0239419999999999,9.773131
0.368707,-0.0239419999999999,9.739613
0.411803,-0.014365,9.749189
0.493206,0.0239419999999999,9.749189
0.387861,-0.019154,9.77792
0.407014,-0.057461,9.782708
0.42138,-0.02873,9.77792
0.387861,-0.033519,9.749189
0.3926489999999999,-0.033519,9.763555
-0.153229,-1.4604629999999998,12.248735
-2.504335,-2.30801,11.334151
0.943315,4.616021,10.860099
-0.612916,2.844312,11.420342
0.435745,-0.062249,9.773131
0.397437,0.009577,9.734824
0.402226,-0.02873,9.773131
0.3926489999999999,-0.009577,9.749189
0.402226,-0.014365,9.749189
0.378284,-0.0430959999999999,9.758766
0.416591,0.009577,9.749189
0.416591,-0.009577,9.739613
0.402226,-0.009577,9.749189
0.378284,-0.019154,9.749189
0.407014,-0.033519,9.758766
0.387861,0.02873,9.782708
0.426168,-0.019154,9.773131
0.411803,-0.009577,9.758766
0.397437,-0.004788,9.739613
0.344765,-0.0239419999999999,9.773131
0.368707,-0.0239419999999999,9.739613
0.411803,-0.014365,9.749189
0.493206,0.0239419999999999,9.749189
0.387861,-0.019154,9.77792
0.407014,-0.057461,9.782708
0.42138,-0.02873,9.77792
0.387861,-0.033519,9.749189
0.3926489999999999,-0.033519,9.763555
-0.153229,-1.4604629999999998,12.248735
-2.504335,-2.30801,11.334151
0.943315,4.616021,10.860099
-0.612916,2.844312,11.420342
0.545878,5.645528,8.446744
1.292869,6.641516,7.958327000000001
0.402226,-0.02873,9.773131
0.3926489999999999,-0.009577,9.749189
0.402226,-0.014365,9.749189
0.378284,-0.0430959999999999,9.758766
0.416591,0.009577,9.749189
0.416591,-0.009577,9.739613
0.402226,-0.009577,9.749189
0.378284,-0.019154,9.749189
0.407014,-0.033519,9.758766
0.387861,0.02873,9.782708
0.426168,-0.019154,9.773131
0.411803,-0.009577,9.758766
0.397437,-0.004788,9.739613
0.344765,-0.0239419999999999,9.773131
0.368707,-0.0239419999999999,9.739613
0.411803,-0.014365,9.749189
0.493206,0.0239419999999999,9.749189
0.387861,-0.019154,9.77792
0.407014,-0.057461,9.782708
0.42138,-0.02873,9.77792
0.387861,-0.033519,9.749189
0.3926489999999999,-0.033519,9.763555
-0.153229,-1.4604629999999998,12.248735
-2.504335,-2.30801,11.334151
0.943315,4.616021,10.860099
-0.612916,2.844312,11.420342
0.545878,5.645528,8.446744
1.292869,6.641516,7.958327000000001
0.636858,6.311116,7.354988
-0.402226,5.382166000000001,8.810661999999999
0.402226,-0.014365,9.749189
0.378284,-0.0430959999999999,9.758766
0.416591,0.009577,9.749189
0.416591,-0.009577,9.739613
0.402226,-0.009577,9.749189
0.378284,-0.019154,9.749189
0.407014,-0.033519,9.758766
0.387861,0.02873,9.782708
0.426168,-0.019154,9.773131
0.411803,-0.009577,9.758766
0.397437,-0.004788,9.739613
0.344765,-0.0239419999999999,9.773131
0.368707,-0.0239419999999999,9.739613
0.411803,-0.014365,9.749189
0.493206,0.0239419999999999,9.749189
0.387861,-0.019154,9.77792
0.407014,-0.057461,9.782708
0.42138,-0.02873,9.77792
0.387861,-0.033519,9.749189
0.3926489999999999,-0.033519,9.763555
-0.153229,-1.4604629999999998,12.248735
-2.504335,-2.30801,11.334151
0.943315,4.616021,10.860099
-0.612916,2.844312,11.420342
0.545878,5.645528,8.446744
1.292869,6.641516,7.958327000000001
0.636858,6.311116,7.354988
-0.402226,5.382166000000001,8.810661999999999
-0.177171,4.692636,8.394072
2.437297,6.78038,7.163452
-0.1005559999999999,0.201113,9.763555
-0.124498,0.215478,9.773131
-0.11971,0.220267,9.744401
-0.105345,0.220267,9.792285
-0.086191,0.21069,9.773131
-0.114922,0.215478,9.768343
-0.062249,0.177171,9.768343
-0.1005559999999999,0.220267,9.77792
-0.0957679999999999,0.177171,9.792285
-0.086191,0.23942,9.77792
-0.1005559999999999,0.234632,9.763555
-0.067038,0.244209,9.773131
-0.110133,0.229843,9.792285
-0.105345,0.215478,9.782708
-0.1005559999999999,0.225055,9.768343
-0.1005559999999999,0.225055,9.753978
-0.0957679999999999,0.225055,9.787497
-0.110133,0.21069,9.758766
-0.11971,0.234632,9.758766
-0.105345,0.21069,9.763555
-0.110133,0.234632,9.782708
-0.105345,0.23942,9.739613
-0.1292869999999999,0.23942,9.782708
-0.11971,0.234632,9.792285
-0.0957679999999999,0.23942,9.739613
-0.0909799999999999,0.234632,9.773131
-0.105345,0.225055,9.758766
-0.114922,0.205901,9.768343
-0.134075,0.220267,9.811439
-0.110133,0.225055,9.749189
-0.11971,0.220267,9.744401
-0.105345,0.220267,9.792285
-0.086191,0.21069,9.773131
-0.114922,0.215478,9.768343
-0.062249,0.177171,9.768343
-0.1005559999999999,0.220267,9.77792
-0.0957679999999999,0.177171,9.792285
-0.086191,0.23942,9.77792
-0.1005559999999999,0.234632,9.763555
-0.067038,0.244209,9.773131
-0.110133,0.229843,9.792285
-0.105345,0.215478,9.782708
-0.1005559999999999,0.225055,9.768343
-0.1005559999999999,0.225055,9.753978
-0.0957679999999999,0.225055,9.787497
-0.110133,0.21069,9.758766
-0.11971,0.234632,9.758766
-0.105345,0.21069,9.763555
-0.110133,0.234632,9.782708
-0.105345,0.23942,9.739613
-0.1292869999999999,0.23942,9.782708
-0.11971,0.234632,9.792285
-0.0957679999999999,0.23942,9.739613
-0.0909799999999999,0.234632,9.773131
-0.105345,0.225055,9.758766
-0.114922,0.205901,9.768343
-0.134075,0.220267,9.811439
-0.110133,0.225055,9.749189
-0.1005559999999999,0.253785,9.763555
-0.105345,0.234632,9.792285
-0.086191,0.21069,9.773131
-0.114922,0.215478,9.768343
-0.062249,0.177171,9.768343
-0.1005559999999999,0.220267,9.77792
-0.0957679999999999,0.177171,9.792285
-0.086191,0.23942,9.77792
-0.1005559999999999,0.234632,9.763555
-0.067038,0.244209,9.773131
-0.110133,0.229843,9.792285
-0.105345,0.215478,9.782708
-0.1005559999999999,0.225055,9.768343
-0.1005559999999999,0.225055,9.753978
-0.0957679999999999,0.225055,9.787497
-0.110133,0.21069,9.758766
-0.11971,0.234632,9.758766
-0.105345,0.21069,9.763555
-0.110133,0.234632,9.782708
-0.105345,0.23942,9.739613
-0.1292869999999999,0.23942,9.782708
-0.11971,0.234632,9.792285
-0.0957679999999999,0.23942,9.739613
-0.0909799999999999,0.234632,9.773131
-0.105345,0.225055,9.758766
-0.114922,0.205901,9.768343
-0.134075,0.220267,9.811439
-0.110133,0.225055,9.749189
-0.1005559999999999,0.253785,9.763555
-0.105345,0.234632,9.792285
-0.0909799999999999,0.282516,9.77792
0.0239419999999999,0.177171,9.701305
-0.062249,0.177171,9.768343
-0.1005559999999999,0.220267,9.77792
-0.0957679999999999,0.177171,9.792285
-0.086191,0.23942,9.77792
-0.1005559999999999,0.234632,9.763555
-0.067038,0.244209,9.773131
-0.110133,0.229843,9.792285
-0.105345,0.215478,9.782708
-0.1005559999999999,0.225055,9.768343
-0.1005559999999999,0.225055,9.753978
-0.0957679999999999,0.225055,9.787497
-0.110133,0.21069,9.758766
-0.11971,0.234632,9.758766
-0.105345,0.21069,9.763555
-0.110133,0.234632,9.782708
-0.105345,0.23942,9.739613
-0.1292869999999999,0.23942,9.782708
-0.11971,0.234632,9.792285
-0.0957679999999999,0.23942,9.739613
-0.0909799999999999,0.234632,9.773131
-0.105345,0.225055,9.758766
-0.114922,0.205901,9.768343
-0.134075,0.220267,9.811439
-0.110133,0.225055,9.749189
-0.1005559999999999,0.253785,9.763555
-0.105345,0.234632,9.792285
-0.0909799999999999,0.282516,9.77792
0.0239419999999999,0.177171,9.701305
-0.0957679999999999,0.268151,9.730036
-0.076614,0.1819589999999999,9.749189
-0.0957679999999999,0.177171,9.792285
-0.086191,0.23942,9.77792
-0.1005559999999999,0.234632,9.763555
-0.067038,0.244209,9.773131
-0.110133,0.229843,9.792285
-0.105345,0.215478,9.782708
-0.1005559999999999,0.225055,9.768343
-0.1005559999999999,0.225055,9.753978
-0.0957679999999999,0.225055,9.787497
-0.110133,0.21069,9.758766
-0.11971,0.234632,9.758766
-0.105345,0.21069,9.763555
-0.110133,0.234632,9.782708
-0.105345,0.23942,9.739613
-0.1292869999999999,0.23942,9.782708
-0.11971,0.234632,9.792285
-0.0957679999999999,0.23942,9.739613
-0.0909799999999999,0.234632,9.773131
-0.105345,0.225055,9.758766
-0.114922,0.205901,9.768343
-0.134075,0.220267,9.811439
-0.110133,0.225055,9.749189
-0.1005559999999999,0.253785,9.763555
-0.105345,0.234632,9.792285
-0.0909799999999999,0.282516,9.77792
0.0239419999999999,0.177171,9.701305
-0.0957679999999999,0.268151,9.730036
-0.076614,0.1819589999999999,9.749189
0.019154,0.220267,9.749189
-0.138864,0.215478,9.763555
-0.1005559999999999,0.234632,9.763555
-0.067038,0.244209,9.773131
-0.110133,0.229843,9.792285
-0.105345,0.215478,9.782708
-0.1005559999999999,0.225055,9.768343
-0.1005559999999999,0.225055,9.753978
-0.0957679999999999,0.225055,9.787497
-0.110133,0.21069,9.758766
-0.11971,0.234632,9.758766
-0.105345,0.21069,9.763555
-0.110133,0.234632,9.782708
-0.105345,0.23942,9.739613
-0.1292869999999999,0.23942,9.782708
-0.11971,0.234632,9.792285
-0.0957679999999999,0.23942,9.739613
-0.0909799999999999,0.234632,9.773131
-0.105345,0.225055,9.758766
-0.114922,0.205901,9.768343
-0.134075,0.220267,9.811439
-0.110133,0.225055,9.749189
-0.1005559999999999,0.253785,9.763555
-0.105345,0.234632,9.792285
-0.0909799999999999,0.282516,9.77792
0.0239419999999999,0.177171,9.701305
-0.0957679999999999,0.268151,9.730036
-0.076614,0.1819589999999999,9.749189
0.019154,0.220267,9.749189
-0.138864,0.215478,9.763555
-0.134075,0.177171,9.77792
-0.086191,0.215478,9.782708
-0.124498,-0.153229,9.773131
-0.320823,-0.1915359999999999,9.792285
0.148441,-0.234632,9.768343
0.407014,0.0239419999999999,9.80665
-0.311246,-0.167594,9.768343
-0.038307,-0.244209,9.782708
-0.114922,-0.158017,9.801862
-0.124498,-0.114922,9.758766
-0.167594,-0.124498,9.667787
-0.11971,-0.124498,9.792285
-0.1005559999999999,-0.148441,9.792285
-0.138864,-0.110133,9.782708
-0.114922,-0.1292869999999999,9.77792
-0.1292869999999999,-0.124498,9.782708
-0.138864,-0.138864,9.77792
-0.114922,-0.11971,9.77792
-0.114922,-0.143652,9.758766
0.014365,-0.057461,9.734824
-0.110133,-0.134075,9.77792
-0.153229,-0.124498,9.763555
-0.086191,-0.134075,9.749189
-0.124498,-0.134075,9.782708
-0.138864,-0.134075,9.792285
-0.110133,-0.11971,9.77792
-0.0957679999999999,-0.124498,9.782708
-0.1292869999999999,-0.143652,9.77792
-0.1915359999999999,-0.057461,9.768343
-0.033519,-0.134075,9.758766
-0.134075,-0.033519,9.763555
-0.076614,-0.11971,9.782708
-0.110133,0.229843,9.792285
-0.105345,0.215478,9.782708
-0.1005559999999999,0.225055,9.768343
-0.1005559999999999,0.225055,9.753978
-0.0957679999999999,0.225055,9.787497
-0.110133,0.21069,9.758766
-0.11971,0.234632,9.758766
-0.105345,0.21069,9.763555
-0.110133,0.234632,9.782708
-0.105345,0.23942,9.739613
-0.1292869999999999,0.23942,9.782708
-0.11971,0.234632,9.792285
-0.0957679999999999,0.23942,9.739613
-0.0909799999999999,0.234632,9.773131
-0.105345,0.225055,9.758766
-0.114922,0.205901,9.768343
-0.134075,0.220267,9.811439
-0.110133,0.225055,9.749189
-0.1005559999999999,0.253785,9.763555
-0.105345,0.234632,9.792285
-0.0909799999999999,0.282516,9.77792
0.0239419999999999,0.177171,9.701305
-0.0957679999999999,0.268151,9.730036
-0.076614,0.1819589999999999,9.749189
0.019154,0.220267,9.749189
-0.138864,0.215478,9.763555
-0.134075,0.177171,9.77792
-0.086191,0.215478,9.782708
-0.162806,0.268151,9.768343
-0.110133,0.186748,9.768343
-0.1005559999999999,0.225055,9.768343
-0.1005559999999999,0.225055,9.753978
-0.0957679999999999,0.225055,9.787497
-0.110133,0.21069,9.758766
-0.11971,0.234632,9.758766
-0.105345,0.21069,9.763555
-0.110133,0.234632,9.782708
-0.105345,0.23942,9.739613
-0.1292869999999999,0.23942,9.782708
-0.11971,0.234632,9.792285
-0.0957679999999999,0.23942,9.739613
-0.0909799999999999,0.234632,9.773131
-0.105345,0.225055,9.758766
-0.114922,0.205901,9.768343
-0.134075,0.220267,9.811439
-0.110133,0.225055,9.749189
-0.1005559999999999,0.253785,9.763555
-0.105345,0.234632,9.792285
-0.0909799999999999,0.282516,9.77792
0.0239419999999999,0.177171,9.701305
-0.0957679999999999,0.268151,9.730036
-0.076614,0.1819589999999999,9.749189
0.019154,0.220267,9.749189
-0.138864,0.215478,9.763555
-0.134075,0.177171,9.77792
-0.086191,0.215478,9.782708
-0.162806,0.268151,9.768343
-0.110133,0.186748,9.768343
-0.316035,0.201113,9.576807
-0.770933,-0.641646,10.065224
-0.0957679999999999,0.225055,9.787497
-0.110133,0.21069,9.758766
-0.11971,0.234632,9.758766
-0.105345,0.21069,9.763555
-0.110133,0.234632,9.782708
-0.105345,0.23942,9.739613
-0.1292869999999999,0.23942,9.782708
-0.11971,0.234632,9.792285
-0.0957679999999999,0.23942,9.739613
-0.0909799999999999,0.234632,9.773131
-0.105345,0.225055,9.758766
-0.114922,0.205901,9.768343
-0.134075,0.220267,9.811439
-0.110133,0.225055,9.749189
-0.1005559999999999,0.253785,9.763555
-0.105345,0.234632,9.792285
-0.0909799999999999,0.282516,9.77792
0.0239419999999999,0.177171,9.701305
-0.0957679999999999,0.268151,9.730036
-0.076614,0.1819589999999999,9.749189
0.019154,0.220267,9.749189
-0.138864,0.215478,9.763555
-0.134075,0.177171,9.77792
-0.086191,0.215478,9.782708
-0.162806,0.268151,9.768343
-0.110133,0.186748,9.768343
-0.316035,0.201113,9.576807
-0.770933,-0.641646,10.065224
0.02873,0.201113,9.864111
-2.896984,-1.532289,2.466028
-0.11971,0.234632,9.758766
-0.105345,0.21069,9.763555
-0.110133,0.234632,9.782708
-0.105345,0.23942,9.739613
-0.1292869999999999,0.23942,9.782708
-0.11971,0.234632,9.792285
-0.0957679999999999,0.23942,9.739613
-0.0909799999999999,0.234632,9.773131
-0.105345,0.225055,9.758766
-0.114922,0.205901,9.768343
-0.134075,0.220267,9.811439
-0.110133,0.225055,9.749189
-0.1005559999999999,0.253785,9.763555
-0.105345,0.234632,9.792285
-0.0909799999999999,0.282516,9.77792
0.0239419999999999,0.177171,9.701305
-0.0957679999999999,0.268151,9.730036
-0.076614,0.1819589999999999,9.749189
0.019154,0.220267,9.749189
-0.138864,0.215478,9.763555
-0.134075,0.177171,9.77792
-0.086191,0.215478,9.782708
-0.162806,0.268151,9.768343
-0.110133,0.186748,9.768343
-0.316035,0.201113,9.576807
-0.770933,-0.641646,10.065224
0.02873,0.201113,9.864111
-2.896984,-1.532289,2.466028
0.967258,4.515465,7.963114999999999
0.521936,4.237737,8.820239
-0.110133,0.234632,9.782708
-0.105345,0.23942,9.739613
-0.1292869999999999,0.23942,9.782708
-0.11971,0.234632,9.792285
-0.0957679999999999,0.23942,9.739613
-0.0909799999999999,0.234632,9.773131
-0.105345,0.225055,9.758766
-0.114922,0.205901,9.768343
-0.134075,0.220267,9.811439
-0.110133,0.225055,9.749189
-0.1005559999999999,0.253785,9.763555
-0.105345,0.234632,9.792285
-0.0909799999999999,0.282516,9.77792
0.0239419999999999,0.177171,9.701305
-0.0957679999999999,0.268151,9.730036
-0.076614,0.1819589999999999,9.749189
0.019154,0.220267,9.749189
-0.138864,0.215478,9.763555
-0.134075,0.177171,9.77792
-0.086191,0.215478,9.782708
-0.162806,0.268151,9.768343
-0.110133,0.186748,9.768343
-0.316035,0.201113,9.576807
-0.770933,-0.641646,10.065224
0.02873,0.201113,9.864111
-2.896984,-1.532289,2.466028
0.967258,4.515465,7.963114999999999
0.521936,4.237737,8.820239
0.59855,6.186618,7.422025
0.057461,5.5545480000000005,7.862559
-0.1292869999999999,0.23942,9.782708
-0.11971,0.234632,9.792285
-0.0957679999999999,0.23942,9.739613
-0.0909799999999999,0.234632,9.773131
-0.105345,0.225055,9.758766
-0.114922,0.205901,9.768343
-0.134075,0.220267,9.811439
-0.110133,0.225055,9.749189
-0.1005559999999999,0.253785,9.763555
-0.105345,0.234632,9.792285
-0.0909799999999999,0.282516,9.77792
0.0239419999999999,0.177171,9.701305
-0.0957679999999999,0.268151,9.730036
-0.076614,0.1819589999999999,9.749189
0.019154,0.220267,9.749189
-0.138864,0.215478,9.763555
-0.134075,0.177171,9.77792
-0.086191,0.215478,9.782708
-0.162806,0.268151,9.768343
-0.110133,0.186748,9.768343
-0.316035,0.201113,9.576807
-0.770933,-0.641646,10.065224
0.02873,0.201113,9.864111
-2.896984,-1.532289,2.466028
0.967258,4.515465,7.963114999999999
0.521936,4.237737,8.820239
0.59855,6.186618,7.422025
0.057461,5.5545480000000005,7.862559
0.857124,6.234502,7.862559
0.110133,4.764462,8.48984
-0.0957679999999999,0.23942,9.739613
-0.0909799999999999,0.234632,9.773131
-0.105345,0.225055,9.758766
-0.114922,0.205901,9.768343
-0.134075,0.220267,9.811439
-0.110133,0.225055,9.749189
-0.1005559999999999,0.253785,9.763555
-0.105345,0.234632,9.792285
-0.0909799999999999,0.282516,9.77792
0.0239419999999999,0.177171,9.701305
-0.0957679999999999,0.268151,9.730036
-0.076614,0.1819589999999999,9.749189
0.019154,0.220267,9.749189
-0.138864,0.215478,9.763555
-0.134075,0.177171,9.77792
-0.086191,0.215478,9.782708
-0.162806,0.268151,9.768343
-0.110133,0.186748,9.768343
-0.316035,0.201113,9.576807
-0.770933,-0.641646,10.065224
0.02873,0.201113,9.864111
-2.896984,-1.532289,2.466028
0.967258,4.515465,7.963114999999999
0.521936,4.237737,8.820239
0.59855,6.186618,7.422025
0.057461,5.5545480000000005,7.862559
0.857124,6.234502,7.862559
0.110133,4.764462,8.48984
0.6033390000000001,5.343858,8.145074000000001
1.077391,6.019023000000001,7.422025
-0.105345,0.225055,9.758766
-0.114922,0.205901,9.768343
-0.134075,0.220267,9.811439
-0.110133,0.225055,9.749189
-0.1005559999999999,0.253785,9.763555
-0.105345,0.234632,9.792285
-0.0909799999999999,0.282516,9.77792
0.0239419999999999,0.177171,9.701305
-0.0957679999999999,0.268151,9.730036
-0.076614,0.1819589999999999,9.749189
0.019154,0.220267,9.749189
-0.138864,0.215478,9.763555
-0.134075,0.177171,9.77792
-0.086191,0.215478,9.782708
-0.162806,0.268151,9.768343
-0.110133,0.186748,9.768343
-0.316035,0.201113,9.576807
-0.770933,-0.641646,10.065224
0.02873,0.201113,9.864111
-2.896984,-1.532289,2.466028
0.967258,4.515465,7.963114999999999
0.521936,4.237737,8.820239
0.59855,6.186618,7.422025
0.057461,5.5545480000000005,7.862559
0.857124,6.234502,7.862559
0.110133,4.764462,8.48984
0.6033390000000001,5.343858,8.145074000000001
1.077391,6.019023000000001,7.422025
0.799663,6.378154,7.402872
0.790087,6.378154,7.23049
-0.134075,0.220267,9.811439
-0.110133,0.225055,9.749189
-0.1005559999999999,0.253785,9.763555
-0.105345,0.234632,9.792285
-0.0909799999999999,0.282516,9.77792
0.0239419999999999,0.177171,9.701305
-0.0957679999999999,0.268151,9.730036
-0.076614,0.1819589999999999,9.749189
0.019154,0.220267,9.749189
-0.138864,0.215478,9.763555
-0.134075,0.177171,9.77792
-0.086191,0.215478,9.782708
-0.162806,0.268151,9.768343
-0.110133,0.186748,9.768343
-0.316035,0.201113,9.576807
-0.770933,-0.641646,10.065224
0.02873,0.201113,9.864111
-2.896984,-1.532289,2.466028
0.967258,4.515465,7.963114999999999
0.521936,4.237737,8.820239
0.59855,6.186618,7.422025
0.057461,5.5545480000000005,7.862559
0.857124,6.234502,7.862559
0.110133,4.764462,8.48984
0.6033390000000001,5.343858,8.145074000000001
1.077391,6.019023000000001,7.422025
0.799663,6.378154,7.402872
0.790087,6.378154,7.23049
1.7477669999999998,6.44998,4.841076
1.690306,6.545748000000001,7.393294999999999
-0.1005559999999999,0.253785,9.763555
-0.105345,0.234632,9.792285
-0.0909799999999999,0.282516,9.77792
0.0239419999999999,0.177171,9.701305
-0.0957679999999999,0.268151,9.730036
-0.076614,0.1819589999999999,9.749189
0.019154,0.220267,9.749189
-0.138864,0.215478,9.763555
-0.134075,0.177171,9.77792
-0.086191,0.215478,9.782708
-0.162806,0.268151,9.768343
-0.110133,0.186748,9.768343
-0.316035,0.201113,9.576807
-0.770933,-0.641646,10.065224
0.02873,0.201113,9.864111
-2.896984,-1.532289,2.466028
0.967258,4.515465,7.963114999999999
0.521936,4.237737,8.820239
0.59855,6.186618,7.422025
0.057461,5.5545480000000005,7.862559
0.857124,6.234502,7.862559
0.110133,4.764462,8.48984
0.6033390000000001,5.343858,8.145074000000001
1.077391,6.019023000000001,7.422025
0.799663,6.378154,7.402872
0.790087,6.378154,7.23049
1.7477669999999998,6.44998,4.841076
1.690306,6.545748000000001,7.393294999999999
2.035071,7.580042999999999,5.592855
-0.445322,5.319916,3.423709
0.148441,-0.234632,9.768343
0.407014,0.0239419999999999,9.80665
-0.311246,-0.167594,9.768343
-0.038307,-0.244209,9.782708
-0.114922,-0.158017,9.801862
-0.124498,-0.114922,9.758766
-0.167594,-0.124498,9.667787
-0.11971,-0.124498,9.792285
-0.1005559999999999,-0.148441,9.792285
-0.138864,-0.110133,9.782708
-0.114922,-0.1292869999999999,9.77792
-0.1292869999999999,-0.124498,9.782708
-0.138864,-0.138864,9.77792
-0.114922,-0.11971,9.77792
-0.114922,-0.143652,9.758766
0.014365,-0.057461,9.734824
-0.110133,-0.134075,9.77792
-0.153229,-0.124498,9.763555
-0.086191,-0.134075,9.749189
-0.124498,-0.134075,9.782708
-0.138864,-0.134075,9.792285
-0.110133,-0.11971,9.77792
-0.0957679999999999,-0.124498,9.782708
-0.1292869999999999,-0.143652,9.77792
-0.1915359999999999,-0.057461,9.768343
-0.033519,-0.134075,9.758766
-0.134075,-0.033519,9.763555
-0.076614,-0.11971,9.782708
-0.0957679999999999,-0.1723829999999999,9.768343
-0.1292869999999999,-0.1292869999999999,9.763555
-0.0909799999999999,0.282516,9.77792
0.0239419999999999,0.177171,9.701305
-0.0957679999999999,0.268151,9.730036
-0.076614,0.1819589999999999,9.749189
0.019154,0.220267,9.749189
-0.138864,0.215478,9.763555
-0.134075,0.177171,9.77792
-0.086191,0.215478,9.782708
-0.162806,0.268151,9.768343
-0.110133,0.186748,9.768343
-0.316035,0.201113,9.576807
-0.770933,-0.641646,10.065224
0.02873,0.201113,9.864111
-2.896984,-1.532289,2.466028
0.967258,4.515465,7.963114999999999
0.521936,4.237737,8.820239
0.59855,6.186618,7.422025
0.057461,5.5545480000000005,7.862559
0.857124,6.234502,7.862559
0.110133,4.764462,8.48984
0.6033390000000001,5.343858,8.145074000000001
1.077391,6.019023000000001,7.422025
0.799663,6.378154,7.402872
0.790087,6.378154,7.23049
1.7477669999999998,6.44998,4.841076
1.690306,6.545748000000001,7.393294999999999
2.035071,7.580042999999999,5.592855
-0.445322,5.319916,3.423709
-0.368707,5.31034,7.527369999999999
0.009577,5.66947,7.943961
-0.0957679999999999,0.268151,9.730036
-0.076614,0.1819589999999999,9.749189
0.019154,0.220267,9.749189
-0.138864,0.215478,9.763555
-0.134075,0.177171,9.77792
-0.086191,0.215478,9.782708
-0.162806,0.268151,9.768343
-0.110133,0.186748,9.768343
-0.316035,0.201113,9.576807
-0.770933,-0.641646,10.065224
0.02873,0.201113,9.864111
-2.896984,-1.532289,2.466028
0.967258,4.515465,7.963114999999999
0.521936,4.237737,8.820239
0.59855,6.186618,7.422025
0.057461,5.5545480000000005,7.862559
0.857124,6.234502,7.862559
0.110133,4.764462,8.48984
0.6033390000000001,5.343858,8.145074000000001
1.077391,6.019023000000001,7.422025
0.799663,6.378154,7.402872
0.790087,6.378154,7.23049
1.7477669999999998,6.44998,4.841076
1.690306,6.545748000000001,7.393294999999999
2.035071,7.580042999999999,5.592855
-0.445322,5.319916,3.423709
-0.368707,5.31034,7.527369999999999
0.009577,5.66947,7.943961
0.23942,4.941633,7.848192999999999
-0.368707,4.826711,8.245631
0.019154,0.220267,9.749189
-0.138864,0.215478,9.763555
-0.134075,0.177171,9.77792
-0.086191,0.215478,9.782708
-0.162806,0.268151,9.768343
-0.110133,0.186748,9.768343
-0.316035,0.201113,9.576807
-0.770933,-0.641646,10.065224
0.02873,0.201113,9.864111
-2.896984,-1.532289,2.466028
0.967258,4.515465,7.963114999999999
0.521936,4.237737,8.820239
0.59855,6.186618,7.422025
0.057461,5.5545480000000005,7.862559
0.857124,6.234502,7.862559
0.110133,4.764462,8.48984
0.6033390000000001,5.343858,8.145074000000001
1.077391,6.019023000000001,7.422025
0.799663,6.378154,7.402872
0.790087,6.378154,7.23049
1.7477669999999998,6.44998,4.841076
1.690306,6.545748000000001,7.393294999999999
2.035071,7.580042999999999,5.592855
-0.445322,5.319916,3.423709
-0.368707,5.31034,7.527369999999999
0.009577,5.66947,7.943961
0.23942,4.941633,7.848192999999999
-0.368707,4.826711,8.245631
0.225055,5.027824,8.820239
1.44131,5.712566000000001,7.469908999999999
-0.134075,0.177171,9.77792
-0.086191,0.215478,9.782708
-0.162806,0.268151,9.768343
-0.110133,0.186748,9.768343
-0.316035,0.201113,9.576807
-0.770933,-0.641646,10.065224
0.02873,0.201113,9.864111
-2.896984,-1.532289,2.466028
0.967258,4.515465,7.963114999999999
0.521936,4.237737,8.820239
0.59855,6.186618,7.422025
0.057461,5.5545480000000005,7.862559
0.857124,6.234502,7.862559
0.110133,4.764462,8.48984
0.6033390000000001,5.343858,8.145074000000001
1.077391,6.019023000000001,7.422025
0.799663,6.378154,7.402872
0.790087,6.378154,7.23049
1.7477669999999998,6.44998,4.841076
1.690306,6.545748000000001,7.393294999999999
2.035071,7.580042999999999,5.592855
-0.445322,5.319916,3.423709
-0.368707,5.31034,7.527369999999999
0.009577,5.66947,7.943961
0.23942,4.941633,7.848192999999999
-0.368707,4.826711,8.245631
0.225055,5.027824,8.820239
1.44131,5.712566000000001,7.469908999999999
0.45011,4.697424,8.647857
0.0430959999999999,4.189853,8.647857
-0.162806,0.268151,9.768343
-0.110133,0.186748,9.768343
-0.316035,0.201113,9.576807
-0.770933,-0.641646,10.065224
0.02873,0.201113,9.864111
-2.896984,-1.532289,2.466028
0.967258,4.515465,7.963114999999999
0.521936,4.237737,8.820239
0.59855,6.186618,7.422025
0.057461,5.5545480000000005,7.862559
0.857124,6.234502,7.862559
0.110133,4.764462,8.48984
0.6033390000000001,5.343858,8.145074000000001
1.077391,6.019023000000001,7.422025
0.799663,6.378154,7.402872
0.790087,6.378154,7.23049
1.7477669999999998,6.44998,4.841076
1.690306,6.545748000000001,7.393294999999999
2.035071,7.580042999999999,5.592855
-0.445322,5.319916,3.423709
-0.368707,5.31034,7.527369999999999
0.009577,5.66947,7.943961
0.23942,4.941633,7.848192999999999
-0.368707,4.826711,8.245631
0.225055,5.027824,8.820239
1.44131,5.712566000000001,7.469908999999999
0.45011,4.697424,8.647857
0.0430959999999999,4.189853,8.647857
0.416591,4.007894,9.892841
-0.459687,3.96001,8.916007
-0.316035,0.201113,9.576807
-0.770933,-0.641646,10.065224
0.02873,0.201113,9.864111
-2.896984,-1.532289,2.466028
0.967258,4.515465,7.963114999999999
0.521936,4.237737,8.820239
0.59855,6.186618,7.422025
0.057461,5.5545480000000005,7.862559
0.857124,6.234502,7.862559
0.110133,4.764462,8.48984
0.6033390000000001,5.343858,8.145074000000001
1.077391,6.019023000000001,7.422025
0.799663,6.378154,7.402872
0.790087,6.378154,7.23049
1.7477669999999998,6.44998,4.841076
1.690306,6.545748000000001,7.393294999999999
2.035071,7.580042999999999,5.592855
-0.445322,5.319916,3.423709
-0.368707,5.31034,7.527369999999999
0.009577,5.66947,7.943961
0.23942,4.941633,7.848192999999999
-0.368707,4.826711,8.245631
0.225055,5.027824,8.820239
1.44131,5.712566000000001,7.469908999999999
0.45011,4.697424,8.647857
0.0430959999999999,4.189853,8.647857
0.416591,4.007894,9.892841
-0.459687,3.96001,8.916007
-0.354342,4.065354,8.667010000000001
-0.335188,4.036624,8.552089
0.02873,0.201113,9.864111
-2.896984,-1.532289,2.466028
0.967258,4.515465,7.963114999999999
0.521936,4.237737,8.820239
0.59855,6.186618,7.422025
0.057461,5.5545480000000005,7.862559
0.857124,6.234502,7.862559
0.110133,4.764462,8.48984
0.6033390000000001,5.343858,8.145074000000001
1.077391,6.019023000000001,7.422025
0.799663,6.378154,7.402872
0.790087,6.378154,7.23049
1.7477669999999998,6.44998,4.841076
1.690306,6.545748000000001,7.393294999999999
2.035071,7.580042999999999,5.592855
-0.445322,5.319916,3.423709
-0.368707,5.31034,7.527369999999999
0.009577,5.66947,7.943961
0.23942,4.941633,7.848192999999999
-0.368707,4.826711,8.245631
0.225055,5.027824,8.820239
1.44131,5.712566000000001,7.469908999999999
0.45011,4.697424,8.647857
0.0430959999999999,4.189853,8.647857
0.416591,4.007894,9.892841
-0.459687,3.96001,8.916007
-0.354342,4.065354,8.667010000000001
-0.335188,4.036624,8.552089
-0.45011,3.8403,8.662222
-0.110133,3.969586,9.02614
0.967258,4.515465,7.963114999999999
0.521936,4.237737,8.820239
0.59855,6.186618,7.422025
0.057461,5.5545480000000005,7.862559
0.857124,6.234502,7.862559
0.110133,4.764462,8.48984
0.6033390000000001,5.343858,8.145074000000001
1.077391,6.019023000000001,7.422025
0.799663,6.378154,7.402872
0.790087,6.378154,7.23049
1.7477669999999998,6.44998,4.841076
1.690306,6.545748000000001,7.393294999999999
2.035071,7.580042999999999,5.592855
-0.445322,5.319916,3.423709
-0.368707,5.31034,7.527369999999999
0.009577,5.66947,7.943961
0.23942,4.941633,7.848192999999999
-0.368707,4.826711,8.245631
0.225055,5.027824,8.820239
1.44131,5.712566000000001,7.469908999999999
0.45011,4.697424,8.647857
0.0430959999999999,4.189853,8.647857
0.416591,4.007894,9.892841
-0.459687,3.96001,8.916007
-0.354342,4.065354,8.667010000000001
-0.335188,4.036624,8.552089
-0.45011,3.8403,8.662222
-0.110133,3.969586,9.02614
-0.081403,4.003105000000001,8.978256
0.124498,4.132391999999999,9.102755
0.59855,6.186618,7.422025
0.057461,5.5545480000000005,7.862559
0.857124,6.234502,7.862559
0.110133,4.764462,8.48984
0.6033390000000001,5.343858,8.145074000000001
1.077391,6.019023000000001,7.422025
0.799663,6.378154,7.402872
0.790087,6.378154,7.23049
1.7477669999999998,6.44998,4.841076
1.690306,6.545748000000001,7.393294999999999
2.035071,7.580042999999999,5.592855
-0.445322,5.319916,3.423709
-0.368707,5.31034,7.527369999999999
0.009577,5.66947,7.943961
0.23942,4.941633,7.848192999999999
-0.368707,4.826711,8.245631
0.225055,5.027824,8.820239
1.44131,5.712566000000001,7.469908999999999
0.45011,4.697424,8.647857
0.0430959999999999,4.189853,8.647857
0.416591,4.007894,9.892841
-0.459687,3.96001,8.916007
-0.354342,4.065354,8.667010000000001
-0.335188,4.036624,8.552089
-0.45011,3.8403,8.662222
-0.110133,3.969586,9.02614
-0.081403,4.003105000000001,8.978256
0.124498,4.132391999999999,9.102755
0.138864,4.280833,8.604761
-0.071826,4.323929,8.714894000000001
0.857124,6.234502,7.862559
0.110133,4.764462,8.48984
0.6033390000000001,5.343858,8.145074000000001
1.077391,6.019023000000001,7.422025
0.799663,6.378154,7.402872
0.790087,6.378154,7.23049
1.7477669999999998,6.44998,4.841076
1.690306,6.545748000000001,7.393294999999999
2.035071,7.580042999999999,5.592855
-0.445322,5.319916,3.423709
-0.368707,5.31034,7.527369999999999
0.009577,5.66947,7.943961
0.23942,4.941633,7.848192999999999
-0.368707,4.826711,8.245631
0.225055,5.027824,8.820239
1.44131,5.712566000000001,7.469908999999999
0.45011,4.697424,8.647857
0.0430959999999999,4.189853,8.647857
0.416591,4.007894,9.892841
-0.459687,3.96001,8.916007
-0.354342,4.065354,8.667010000000001
-0.335188,4.036624,8.552089
-0.45011,3.8403,8.662222
-0.110133,3.969586,9.02614
-0.081403,4.003105000000001,8.978256
0.124498,4.132391999999999,9.102755
0.138864,4.280833,8.604761
-0.071826,4.323929,8.714894000000001
0.02873,4.486733999999999,8.939949
0.071826,4.343082,8.532935
-0.311246,-0.167594,9.768343
-0.038307,-0.244209,9.782708
-0.114922,-0.158017,9.801862
-0.124498,-0.114922,9.758766
-0.167594,-0.124498,9.667787
-0.11971,-0.124498,9.792285
-0.1005559999999999,-0.148441,9.792285
-0.138864,-0.110133,9.782708
-0.114922,-0.1292869999999999,9.77792
-0.1292869999999999,-0.124498,9.782708
-0.138864,-0.138864,9.77792
-0.114922,-0.11971,9.77792
-0.114922,-0.143652,9.758766
0.014365,-0.057461,9.734824
-0.110133,-0.134075,9.77792
-0.153229,-0.124498,9.763555
-0.086191,-0.134075,9.749189
-0.124498,-0.134075,9.782708
-0.138864,-0.134075,9.792285
-0.110133,-0.11971,9.77792
-0.0957679999999999,-0.124498,9.782708
-0.1292869999999999,-0.143652,9.77792
-0.1915359999999999,-0.057461,9.768343
-0.033519,-0.134075,9.758766
-0.134075,-0.033519,9.763555
-0.076614,-0.11971,9.782708
-0.0957679999999999,-0.1723829999999999,9.768343
-0.1292869999999999,-0.1292869999999999,9.763555
-0.1005559999999999,-0.134075,9.758766
-0.114922,-0.081403,9.706094
0.6033390000000001,5.343858,8.145074000000001
1.077391,6.019023000000001,7.422025
0.799663,6.378154,7.402872
0.790087,6.378154,7.23049
1.7477669999999998,6.44998,4.841076
1.690306,6.545748000000001,7.393294999999999
2.035071,7.580042999999999,5.592855
-0.445322,5.319916,3.423709
-0.368707,5.31034,7.527369999999999
0.009577,5.66947,7.943961
0.23942,4.941633,7.848192999999999
-0.368707,4.826711,8.245631
0.225055,5.027824,8.820239
1.44131,5.712566000000001,7.469908999999999
0.45011,4.697424,8.647857
0.0430959999999999,4.189853,8.647857
0.416591,4.007894,9.892841
-0.459687,3.96001,8.916007
-0.354342,4.065354,8.667010000000001
-0.335188,4.036624,8.552089
-0.45011,3.8403,8.662222
-0.110133,3.969586,9.02614
-0.081403,4.003105000000001,8.978256
0.124498,4.132391999999999,9.102755
0.138864,4.280833,8.604761
-0.071826,4.323929,8.714894000000001
0.02873,4.486733999999999,8.939949
0.071826,4.343082,8.532935
0.052672,4.304775,8.944737
0.009577,4.280833,8.513782
0.799663,6.378154,7.402872
0.790087,6.378154,7.23049
1.7477669999999998,6.44998,4.841076
1.690306,6.545748000000001,7.393294999999999
2.035071,7.580042999999999,5.592855
-0.445322,5.319916,3.423709
-0.368707,5.31034,7.527369999999999
0.009577,5.66947,7.943961
0.23942,4.941633,7.848192999999999
-0.368707,4.826711,8.245631
0.225055,5.027824,8.820239
1.44131,5.712566000000001,7.469908999999999
0.45011,4.697424,8.647857
0.0430959999999999,4.189853,8.647857
0.416591,4.007894,9.892841
-0.459687,3.96001,8.916007
-0.354342,4.065354,8.667010000000001
-0.335188,4.036624,8.552089
-0.45011,3.8403,8.662222
-0.110133,3.969586,9.02614
-0.081403,4.003105000000001,8.978256
0.124498,4.132391999999999,9.102755
0.138864,4.280833,8.604761
-0.071826,4.323929,8.714894000000001
0.02873,4.486733999999999,8.939949
0.071826,4.343082,8.532935
0.052672,4.304775,8.944737
0.009577,4.280833,8.513782
-0.105345,4.180276999999999,8.748413000000001
0.086191,4.367024,8.939949
1.7477669999999998,6.44998,4.841076
1.690306,6.545748000000001,7.393294999999999
2.035071,7.580042999999999,5.592855
-0.445322,5.319916,3.423709
-0.368707,5.31034,7.527369999999999
0.009577,5.66947,7.943961
0.23942,4.941633,7.848192999999999
-0.368707,4.826711,8.245631
0.225055,5.027824,8.820239
1.44131,5.712566000000001,7.469908999999999
0.45011,4.697424,8.647857
0.0430959999999999,4.189853,8.647857
0.416591,4.007894,9.892841
-0.459687,3.96001,8.916007
-0.354342,4.065354,8.667010000000001
-0.335188,4.036624,8.552089
-0.45011,3.8403,8.662222
-0.110133,3.969586,9.02614
-0.081403,4.003105000000001,8.978256
0.124498,4.132391999999999,9.102755
0.138864,4.280833,8.604761
-0.071826,4.323929,8.714894000000001
0.02873,4.486733999999999,8.939949
0.071826,4.343082,8.532935
0.052672,4.304775,8.944737
0.009577,4.280833,8.513782
-0.105345,4.180276999999999,8.748413000000001
0.086191,4.367024,8.939949
-0.062249,4.424485,8.116344
-0.1005559999999999,4.424485,8.499416
2.035071,7.580042999999999,5.592855
-0.445322,5.319916,3.423709
-0.368707,5.31034,7.527369999999999
0.009577,5.66947,7.943961
0.23942,4.941633,7.848192999999999
-0.368707,4.826711,8.245631
0.225055,5.027824,8.820239
1.44131,5.712566000000001,7.469908999999999
0.45011,4.697424,8.647857
0.0430959999999999,4.189853,8.647857
0.416591,4.007894,9.892841
-0.459687,3.96001,8.916007
-0.354342,4.065354,8.667010000000001
-0.335188,4.036624,8.552089
-0.45011,3.8403,8.662222
-0.110133,3.969586,9.02614
-0.081403,4.003105000000001,8.978256
0.124498,4.132391999999999,9.102755
0.138864,4.280833,8.604761
-0.071826,4.323929,8.714894000000001
0.02873,4.486733999999999,8.939949
0.071826,4.343082,8.532935
0.052672,4.304775,8.944737
0.009577,4.280833,8.513782
-0.105345,4.180276999999999,8.748413000000001
0.086191,4.367024,8.939949
-0.062249,4.424485,8.116344
-0.1005559999999999,4.424485,8.499416
0.033519,4.242526,8.470686
-0.067038,4.338294,9.02614
-0.368707,5.31034,7.527369999999999
0.009577,5.66947,7.943961
0.23942,4.941633,7.848192999999999
-0.368707,4.826711,8.245631
0.225055,5.027824,8.820239
1.44131,5.712566000000001,7.469908999999999
0.45011,4.697424,8.647857
0.0430959999999999,4.189853,8.647857
0.416591,4.007894,9.892841
-0.459687,3.96001,8.916007
-0.354342,4.065354,8.667010000000001
-0.335188,4.036624,8.552089
-0.45011,3.8403,8.662222
-0.110133,3.969586,9.02614
-0.081403,4.003105000000001,8.978256
0.124498,4.132391999999999,9.102755
0.138864,4.280833,8.604761
-0.071826,4.323929,8.714894000000001
0.02873,4.486733999999999,8.939949
0.071826,4.343082,8.532935
0.052672,4.304775,8.944737
0.009577,4.280833,8.513782
-0.105345,4.180276999999999,8.748413000000001
0.086191,4.367024,8.939949
-0.062249,4.424485,8.116344
-0.1005559999999999,4.424485,8.499416
0.033519,4.242526,8.470686
-0.067038,4.338294,9.02614
0.0478839999999999,4.553772,8.221689
0.076614,4.156333999999999,8.657434
0.23942,4.941633,7.848192999999999
-0.368707,4.826711,8.245631
0.225055,5.027824,8.820239
1.44131,5.712566000000001,7.469908999999999
0.45011,4.697424,8.647857
0.0430959999999999,4.189853,8.647857
0.416591,4.007894,9.892841
-0.459687,3.96001,8.916007
-0.354342,4.065354,8.667010000000001
-0.335188,4.036624,8.552089
-0.45011,3.8403,8.662222
-0.110133,3.969586,9.02614
-0.081403,4.003105000000001,8.978256
0.124498,4.132391999999999,9.102755
0.138864,4.280833,8.604761
-0.071826,4.323929,8.714894000000001
0.02873,4.486733999999999,8.939949
0.071826,4.343082,8.532935
0.052672,4.304775,8.944737
0.009577,4.280833,8.513782
-0.105345,4.180276999999999,8.748413000000001
0.086191,4.367024,8.939949
-0.062249,4.424485,8.116344
-0.1005559999999999,4.424485,8.499416
0.033519,4.242526,8.470686
-0.067038,4.338294,9.02614
0.0478839999999999,4.553772,8.221689
0.076614,4.156333999999999,8.657434
-0.177171,4.055778,8.968679
0.110133,3.964798000000001,8.844180999999999
0.225055,5.027824,8.820239
1.44131,5.712566000000001,7.469908999999999
0.45011,4.697424,8.647857
0.0430959999999999,4.189853,8.647857
0.416591,4.007894,9.892841
-0.459687,3.96001,8.916007
-0.354342,4.065354,8.667010000000001
-0.335188,4.036624,8.552089
-0.45011,3.8403,8.662222
-0.110133,3.969586,9.02614
-0.081403,4.003105000000001,8.978256
0.124498,4.132391999999999,9.102755
0.138864,4.280833,8.604761
-0.071826,4.323929,8.714894000000001
0.02873,4.486733999999999,8.939949
0.071826,4.343082,8.532935
0.052672,4.304775,8.944737
0.009577,4.280833,8.513782
-0.105345,4.180276999999999,8.748413000000001
0.086191,4.367024,8.939949
-0.062249,4.424485,8.116344
-0.1005559999999999,4.424485,8.499416
0.033519,4.242526,8.470686
-0.067038,4.338294,9.02614
0.0478839999999999,4.553772,8.221689
0.076614,4.156333999999999,8.657434
-0.177171,4.055778,8.968679
0.110133,3.964798000000001,8.844180999999999
0.1819589999999999,4.252103,8.537724
0.234632,4.486733999999999,8.729258999999999
0.45011,4.697424,8.647857
0.0430959999999999,4.189853,8.647857
0.416591,4.007894,9.892841
-0.459687,3.96001,8.916007
-0.354342,4.065354,8.667010000000001
-0.335188,4.036624,8.552089
-0.45011,3.8403,8.662222
-0.110133,3.969586,9.02614
-0.081403,4.003105000000001,8.978256
0.124498,4.132391999999999,9.102755
0.138864,4.280833,8.604761
-0.071826,4.323929,8.714894000000001
0.02873,4.486733999999999,8.939949
0.071826,4.343082,8.532935
0.052672,4.304775,8.944737
0.009577,4.280833,8.513782
-0.105345,4.180276999999999,8.748413000000001
0.086191,4.367024,8.939949
-0.062249,4.424485,8.116344
-0.1005559999999999,4.424485,8.499416
0.033519,4.242526,8.470686
-0.067038,4.338294,9.02614
0.0478839999999999,4.553772,8.221689
0.076614,4.156333999999999,8.657434
-0.177171,4.055778,8.968679
0.110133,3.964798000000001,8.844180999999999
0.1819589999999999,4.252103,8.537724
0.234632,4.486733999999999,8.729258999999999
0.158017,4.266468,8.312667999999999
0.071826,4.1707,8.317456
0.416591,4.007894,9.892841
-0.459687,3.96001,8.916007
-0.354342,4.065354,8.667010000000001
-0.335188,4.036624,8.552089
-0.45011,3.8403,8.662222
-0.110133,3.969586,9.02614
-0.081403,4.003105000000001,8.978256
0.124498,4.132391999999999,9.102755
0.138864,4.280833,8.604761
-0.071826,4.323929,8.714894000000001
0.02873,4.486733999999999,8.939949
0.071826,4.343082,8.532935
0.052672,4.304775,8.944737
0.009577,4.280833,8.513782
-0.105345,4.180276999999999,8.748413000000001
0.086191,4.367024,8.939949
-0.062249,4.424485,8.116344
-0.1005559999999999,4.424485,8.499416
0.033519,4.242526,8.470686
-0.067038,4.338294,9.02614
0.0478839999999999,4.553772,8.221689
0.076614,4.156333999999999,8.657434
-0.177171,4.055778,8.968679
0.110133,3.964798000000001,8.844180999999999
0.1819589999999999,4.252103,8.537724
0.234632,4.486733999999999,8.729258999999999
0.158017,4.266468,8.312667999999999
0.071826,4.1707,8.317456
0.138864,4.017469999999999,9.074024
0.196325,4.089296,8.441956
-0.354342,4.065354,8.667010000000001
-0.335188,4.036624,8.552089
-0.45011,3.8403,8.662222
-0.110133,3.969586,9.02614
-0.081403,4.003105000000001,8.978256
0.124498,4.132391999999999,9.102755
0.138864,4.280833,8.604761
-0.071826,4.323929,8.714894000000001
0.02873,4.486733999999999,8.939949
0.071826,4.343082,8.532935
0.052672,4.304775,8.944737
0.009577,4.280833,8.513782
-0.105345,4.180276999999999,8.748413000000001
0.086191,4.367024,8.939949
-0.062249,4.424485,8.116344
-0.1005559999999999,4.424485,8.499416
0.033519,4.242526,8.470686
-0.067038,4.338294,9.02614
0.0478839999999999,4.553772,8.221689
0.076614,4.156333999999999,8.657434
-0.177171,4.055778,8.968679
0.110133,3.964798000000001,8.844180999999999
0.1819589999999999,4.252103,8.537724
0.234632,4.486733999999999,8.729258999999999
0.158017,4.266468,8.312667999999999
0.071826,4.1707,8.317456
0.138864,4.017469999999999,9.074024
0.196325,4.089296,8.441956
0.349553,4.204219,8.734048
0.158017,4.367024,8.647857
-0.114922,-0.158017,9.801862
-0.124498,-0.114922,9.758766
-0.167594,-0.124498,9.667787
-0.11971,-0.124498,9.792285
-0.1005559999999999,-0.148441,9.792285
-0.138864,-0.110133,9.782708
-0.114922,-0.1292869999999999,9.77792
-0.1292869999999999,-0.124498,9.782708
-0.138864,-0.138864,9.77792
-0.114922,-0.11971,9.77792
-0.114922,-0.143652,9.758766
0.014365,-0.057461,9.734824
-0.110133,-0.134075,9.77792
-0.153229,-0.124498,9.763555
-0.086191,-0.134075,9.749189
-0.124498,-0.134075,9.782708
-0.138864,-0.134075,9.792285
-0.110133,-0.11971,9.77792
-0.0957679999999999,-0.124498,9.782708
-0.1292869999999999,-0.143652,9.77792
-0.1915359999999999,-0.057461,9.768343
-0.033519,-0.134075,9.758766
-0.134075,-0.033519,9.763555
-0.076614,-0.11971,9.782708
-0.0957679999999999,-0.1723829999999999,9.768343
-0.1292869999999999,-0.1292869999999999,9.763555
-0.1005559999999999,-0.134075,9.758766
-0.114922,-0.081403,9.706094
-0.124498,-0.138864,9.77792
-0.1005559999999999,-0.11971,9.763555
-0.45011,3.8403,8.662222
-0.110133,3.969586,9.02614
-0.081403,4.003105000000001,8.978256
0.124498,4.132391999999999,9.102755
0.138864,4.280833,8.604761
-0.071826,4.323929,8.714894000000001
0.02873,4.486733999999999,8.939949
0.071826,4.343082,8.532935
0.052672,4.304775,8.944737
0.009577,4.280833,8.513782
-0.105345,4.180276999999999,8.748413000000001
0.086191,4.367024,8.939949
-0.062249,4.424485,8.116344
-0.1005559999999999,4.424485,8.499416
0.033519,4.242526,8.470686
-0.067038,4.338294,9.02614
0.0478839999999999,4.553772,8.221689
0.076614,4.156333999999999,8.657434
-0.177171,4.055778,8.968679
0.110133,3.964798000000001,8.844180999999999
0.1819589999999999,4.252103,8.537724
0.234632,4.486733999999999,8.729258999999999
0.158017,4.266468,8.312667999999999
0.071826,4.1707,8.317456
0.138864,4.017469999999999,9.074024
0.196325,4.089296,8.441956
0.349553,4.204219,8.734048
0.158017,4.367024,8.647857
2.284068,4.400543,4.510676
3.739743,9.916783,2.901773
-0.081403,4.003105000000001,8.978256
0.124498,4.132391999999999,9.102755
0.138864,4.280833,8.604761
-0.071826,4.323929,8.714894000000001
0.02873,4.486733999999999,8.939949
0.071826,4.343082,8.532935
0.052672,4.304775,8.944737
0.009577,4.280833,8.513782
-0.105345,4.180276999999999,8.748413000000001
0.086191,4.367024,8.939949
-0.062249,4.424485,8.116344
-0.1005559999999999,4.424485,8.499416
0.033519,4.242526,8.470686
-0.067038,4.338294,9.02614
0.0478839999999999,4.553772,8.221689
0.076614,4.156333999999999,8.657434
-0.177171,4.055778,8.968679
0.110133,3.964798000000001,8.844180999999999
0.1819589999999999,4.252103,8.537724
0.234632,4.486733999999999,8.729258999999999
0.158017,4.266468,8.312667999999999
0.071826,4.1707,8.317456
0.138864,4.017469999999999,9.074024
0.196325,4.089296,8.441956
0.349553,4.204219,8.734048
0.158017,4.367024,8.647857
2.284068,4.400543,4.510676
3.739743,9.916783,2.901773
-1.072602,6.852206,7.307103999999999
-0.052672,6.818687,6.995857000000001
0.138864,4.280833,8.604761
-0.071826,4.323929,8.714894000000001
0.02873,4.486733999999999,8.939949
0.071826,4.343082,8.532935
0.052672,4.304775,8.944737
0.009577,4.280833,8.513782
-0.105345,4.180276999999999,8.748413000000001
0.086191,4.367024,8.939949
-0.062249,4.424485,8.116344
-0.1005559999999999,4.424485,8.499416
0.033519,4.242526,8.470686
-0.067038,4.338294,9.02614
0.0478839999999999,4.553772,8.221689
0.076614,4.156333999999999,8.657434
-0.177171,4.055778,8.968679
0.110133,3.964798000000001,8.844180999999999
0.1819589999999999,4.252103,8.537724
0.234632,4.486733999999999,8.729258999999999
0.158017,4.266468,8.312667999999999
0.071826,4.1707,8.317456
0.138864,4.017469999999999,9.074024
0.196325,4.089296,8.441956
0.349553,4.204219,8.734048
0.158017,4.367024,8.647857
2.284068,4.400543,4.510676
3.739743,9.916783,2.901773
-1.072602,6.852206,7.307103999999999
-0.052672,6.818687,6.995857000000001
0.1915359999999999,7.345411,6.746861
-0.287304,7.0820490000000005,6.172251999999999
0.02873,4.486733999999999,8.939949
0.071826,4.343082,8.532935
0.052672,4.304775,8.944737
0.009577,4.280833,8.513782
-0.105345,4.180276999999999,8.748413000000001
0.086191,4.367024,8.939949
-0.062249,4.424485,8.116344
-0.1005559999999999,4.424485,8.499416
0.033519,4.242526,8.470686
-0.067038,4.338294,9.02614
0.0478839999999999,4.553772,8.221689
0.076614,4.156333999999999,8.657434
-0.177171,4.055778,8.968679
0.110133,3.964798000000001,8.844180999999999
0.1819589999999999,4.252103,8.537724
0.234632,4.486733999999999,8.729258999999999
0.158017,4.266468,8.312667999999999
0.071826,4.1707,8.317456
0.138864,4.017469999999999,9.074024
0.196325,4.089296,8.441956
0.349553,4.204219,8.734048
0.158017,4.367024,8.647857
2.284068,4.400543,4.510676
3.739743,9.916783,2.901773
-1.072602,6.852206,7.307103999999999
-0.052672,6.818687,6.995857000000001
0.1915359999999999,7.345411,6.746861
-0.287304,7.0820490000000005,6.172251999999999
-0.0957679999999999,7.244855,5.779603
-0.502782,6.406884,6.5792660000000005
0.052672,4.304775,8.944737
0.009577,4.280833,8.513782
-0.105345,4.180276999999999,8.748413000000001
0.086191,4.367024,8.939949
-0.062249,4.424485,8.116344
-0.1005559999999999,4.424485,8.499416
0.033519,4.242526,8.470686
-0.067038,4.338294,9.02614
0.0478839999999999,4.553772,8.221689
0.076614,4.156333999999999,8.657434
-0.177171,4.055778,8.968679
0.110133,3.964798000000001,8.844180999999999
0.1819589999999999,4.252103,8.537724
0.234632,4.486733999999999,8.729258999999999
0.158017,4.266468,8.312667999999999
0.071826,4.1707,8.317456
0.138864,4.017469999999999,9.074024
0.196325,4.089296,8.441956
0.349553,4.204219,8.734048
0.158017,4.367024,8.647857
2.284068,4.400543,4.510676
3.739743,9.916783,2.901773
-1.072602,6.852206,7.307103999999999
-0.052672,6.818687,6.995857000000001
0.1915359999999999,7.345411,6.746861
-0.287304,7.0820490000000005,6.172251999999999
-0.0957679999999999,7.244855,5.779603
-0.502782,6.406884,6.5792660000000005
-0.354342,6.665458,6.976704
-0.3926489999999999,6.66067,7.010223
-0.105345,4.180276999999999,8.748413000000001
0.086191,4.367024,8.939949
-0.062249,4.424485,8.116344
-0.1005559999999999,4.424485,8.499416
0.033519,4.242526,8.470686
-0.067038,4.338294,9.02614
0.0478839999999999,4.553772,8.221689
0.076614,4.156333999999999,8.657434
-0.177171,4.055778,8.968679
0.110133,3.964798000000001,8.844180999999999
0.1819589999999999,4.252103,8.537724
0.234632,4.486733999999999,8.729258999999999
0.158017,4.266468,8.312667999999999
0.071826,4.1707,8.317456
0.138864,4.017469999999999,9.074024
0.196325,4.089296,8.441956
0.349553,4.204219,8.734048
0.158017,4.367024,8.647857
2.284068,4.400543,4.510676
3.739743,9.916783,2.901773
-1.072602,6.852206,7.307103999999999
-0.052672,6.818687,6.995857000000001
0.1915359999999999,7.345411,6.746861
-0.287304,7.0820490000000005,6.172251999999999
-0.0957679999999999,7.244855,5.779603
-0.502782,6.406884,6.5792660000000005
-0.354342,6.665458,6.976704
-0.3926489999999999,6.66067,7.010223
-0.344765,6.828264,6.852206
-0.550666,6.933608,6.837839999999999
-0.062249,4.424485,8.116344
-0.1005559999999999,4.424485,8.499416
0.033519,4.242526,8.470686
-0.067038,4.338294,9.02614
0.0478839999999999,4.553772,8.221689
0.076614,4.156333999999999,8.657434
-0.177171,4.055778,8.968679
0.110133,3.964798000000001,8.844180999999999
0.1819589999999999,4.252103,8.537724
0.234632,4.486733999999999,8.729258999999999
0.158017,4.266468,8.312667999999999
0.071826,4.1707,8.317456
0.138864,4.017469999999999,9.074024
0.196325,4.089296,8.441956
0.349553,4.204219,8.734048
0.158017,4.367024,8.647857
2.284068,4.400543,4.510676
3.739743,9.916783,2.901773
-1.072602,6.852206,7.307103999999999
-0.052672,6.818687,6.995857000000001
0.1915359999999999,7.345411,6.746861
-0.287304,7.0820490000000005,6.172251999999999
-0.0957679999999999,7.244855,5.779603
-0.502782,6.406884,6.5792660000000005
-0.354342,6.665458,6.976704
-0.3926489999999999,6.66067,7.010223
-0.344765,6.828264,6.852206
-0.550666,6.933608,6.837839999999999
-0.430956,6.938397,6.924032
-0.459687,6.943185000000001,6.80911
0.033519,4.242526,8.470686
-0.067038,4.338294,9.02614
0.0478839999999999,4.553772,8.221689
0.076614,4.156333999999999,8.657434
-0.177171,4.055778,8.968679
0.110133,3.964798000000001,8.844180999999999
0.1819589999999999,4.252103,8.537724
0.234632,4.486733999999999,8.729258999999999
0.158017,4.266468,8.312667999999999
0.071826,4.1707,8.317456
0.138864,4.017469999999999,9.074024
0.196325,4.089296,8.441956
0.349553,4.204219,8.734048
0.158017,4.367024,8.647857
2.284068,4.400543,4.510676
3.739743,9.916783,2.901773
-1.072602,6.852206,7.307103999999999
-0.052672,6.818687,6.995857000000001
0.1915359999999999,7.345411,6.746861
-0.287304,7.0820490000000005,6.172251999999999
-0.0957679999999999,7.244855,5.779603
-0.502782,6.406884,6.5792660000000005
-0.354342,6.665458,6.976704
-0.3926489999999999,6.66067,7.010223
-0.344765,6.828264,6.852206
-0.550666,6.933608,6.837839999999999
-0.430956,6.938397,6.924032
-0.459687,6.943185000000001,6.80911
-0.502782,7.134722,6.373365
-0.464475,6.976704,6.837839999999999
0.0478839999999999,4.553772,8.221689
0.076614,4.156333999999999,8.657434
-0.177171,4.055778,8.968679
0.110133,3.964798000000001,8.844180999999999
0.1819589999999999,4.252103,8.537724
0.234632,4.486733999999999,8.729258999999999
0.158017,4.266468,8.312667999999999
0.071826,4.1707,8.317456
0.138864,4.017469999999999,9.074024
0.196325,4.089296,8.441956
0.349553,4.204219,8.734048
0.158017,4.367024,8.647857
2.284068,4.400543,4.510676
3.739743,9.916783,2.901773
-1.072602,6.852206,7.307103999999999
-0.052672,6.818687,6.995857000000001
0.1915359999999999,7.345411,6.746861
-0.287304,7.0820490000000005,6.172251999999999
-0.0957679999999999,7.244855,5.779603
-0.502782,6.406884,6.5792660000000005
-0.354342,6.665458,6.976704
-0.3926489999999999,6.66067,7.010223
-0.344765,6.828264,6.852206
-0.550666,6.933608,6.837839999999999
-0.430956,6.938397,6.924032
-0.459687,6.943185000000001,6.80911
-0.502782,7.134722,6.373365
-0.464475,6.976704,6.837839999999999
-0.167594,6.947974,6.698977
-0.287304,7.393294999999999,6.50744
-0.177171,4.055778,8.968679
0.110133,3.964798000000001,8.844180999999999
0.1819589999999999,4.252103,8.537724
0.234632,4.486733999999999,8.729258999999999
0.158017,4.266468,8.312667999999999
0.071826,4.1707,8.317456
0.138864,4.017469999999999,9.074024
0.196325,4.089296,8.441956
0.349553,4.204219,8.734048
0.158017,4.367024,8.647857
2.284068,4.400543,4.510676
3.739743,9.916783,2.901773
-1.072602,6.852206,7.307103999999999
-0.052672,6.818687,6.995857000000001
0.1915359999999999,7.345411,6.746861
-0.287304,7.0820490000000005,6.172251999999999
-0.0957679999999999,7.244855,5.779603
-0.502782,6.406884,6.5792660000000005
-0.354342,6.665458,6.976704
-0.3926489999999999,6.66067,7.010223
-0.344765,6.828264,6.852206
-0.550666,6.933608,6.837839999999999
-0.430956,6.938397,6.924032
-0.459687,6.943185000000001,6.80911
-0.502782,7.134722,6.373365
-0.464475,6.976704,6.837839999999999
-0.167594,6.947974,6.698977
-0.287304,7.393294999999999,6.50744
-0.263362,6.976704,6.641516
-0.1005559999999999,7.192182000000001,6.6894
-0.167594,-0.124498,9.667787
-0.11971,-0.124498,9.792285
-0.1005559999999999,-0.148441,9.792285
-0.138864,-0.110133,9.782708
-0.114922,-0.1292869999999999,9.77792
-0.1292869999999999,-0.124498,9.782708
-0.138864,-0.138864,9.77792
-0.114922,-0.11971,9.77792
-0.114922,-0.143652,9.758766
0.014365,-0.057461,9.734824
-0.110133,-0.134075,9.77792
-0.153229,-0.124498,9.763555
-0.086191,-0.134075,9.749189
-0.124498,-0.134075,9.782708
-0.138864,-0.134075,9.792285
-0.110133,-0.11971,9.77792
-0.0957679999999999,-0.124498,9.782708
-0.1292869999999999,-0.143652,9.77792
-0.1915359999999999,-0.057461,9.768343
-0.033519,-0.134075,9.758766
-0.134075,-0.033519,9.763555
-0.076614,-0.11971,9.782708
-0.0957679999999999,-0.1723829999999999,9.768343
-0.1292869999999999,-0.1292869999999999,9.763555
-0.1005559999999999,-0.134075,9.758766
-0.114922,-0.081403,9.706094
-0.124498,-0.138864,9.77792
-0.1005559999999999,-0.11971,9.763555
-0.124498,-0.105345,9.77792
-0.0957679999999999,-0.11971,9.792285
0.1819589999999999,4.252103,8.537724
0.234632,4.486733999999999,8.729258999999999
0.158017,4.266468,8.312667999999999
0.071826,4.1707,8.317456
0.138864,4.017469999999999,9.074024
0.196325,4.089296,8.441956
0.349553,4.204219,8.734048
0.158017,4.367024,8.647857
2.284068,4.400543,4.510676
3.739743,9.916783,2.901773
-1.072602,6.852206,7.307103999999999
-0.052672,6.818687,6.995857000000001
0.1915359999999999,7.345411,6.746861
-0.287304,7.0820490000000005,6.172251999999999
-0.0957679999999999,7.244855,5.779603
-0.502782,6.406884,6.5792660000000005
-0.354342,6.665458,6.976704
-0.3926489999999999,6.66067,7.010223
-0.344765,6.828264,6.852206
-0.550666,6.933608,6.837839999999999
-0.430956,6.938397,6.924032
-0.459687,6.943185000000001,6.80911
-0.502782,7.134722,6.373365
-0.464475,6.976704,6.837839999999999
-0.167594,6.947974,6.698977
-0.287304,7.393294999999999,6.50744
-0.263362,6.976704,6.641516
-0.1005559999999999,7.192182000000001,6.6894
-0.339977,6.675035,7.220913
1.991976,7.383717999999999,5.90889
0.158017,4.266468,8.312667999999999
0.071826,4.1707,8.317456
0.138864,4.017469999999999,9.074024
0.196325,4.089296,8.441956
0.349553,4.204219,8.734048
0.158017,4.367024,8.647857
2.284068,4.400543,4.510676
3.739743,9.916783,2.901773
-1.072602,6.852206,7.307103999999999
-0.052672,6.818687,6.995857000000001
0.1915359999999999,7.345411,6.746861
-0.287304,7.0820490000000005,6.172251999999999
-0.0957679999999999,7.244855,5.779603
-0.502782,6.406884,6.5792660000000005
-0.354342,6.665458,6.976704
-0.3926489999999999,6.66067,7.010223
-0.344765,6.828264,6.852206
-0.550666,6.933608,6.837839999999999
-0.430956,6.938397,6.924032
-0.459687,6.943185000000001,6.80911
-0.502782,7.134722,6.373365
-0.464475,6.976704,6.837839999999999
-0.167594,6.947974,6.698977
-0.287304,7.393294999999999,6.50744
-0.263362,6.976704,6.641516
-0.1005559999999999,7.192182000000001,6.6894
-0.339977,6.675035,7.220913
1.991976,7.383717999999999,5.90889
2.020706,7.680599000000001,7.115568
0.105345,7.168239999999999,6.756438
0.138864,4.017469999999999,9.074024
0.196325,4.089296,8.441956
0.349553,4.204219,8.734048
0.158017,4.367024,8.647857
2.284068,4.400543,4.510676
3.739743,9.916783,2.901773
-1.072602,6.852206,7.307103999999999
-0.052672,6.818687,6.995857000000001
0.1915359999999999,7.345411,6.746861
-0.287304,7.0820490000000005,6.172251999999999
-0.0957679999999999,7.244855,5.779603
-0.502782,6.406884,6.5792660000000005
-0.354342,6.665458,6.976704
-0.3926489999999999,6.66067,7.010223
-0.344765,6.828264,6.852206
-0.550666,6.933608,6.837839999999999
-0.430956,6.938397,6.924032
-0.459687,6.943185000000001,6.80911
-0.502782,7.134722,6.373365
-0.464475,6.976704,6.837839999999999
-0.167594,6.947974,6.698977
-0.287304,7.393294999999999,6.50744
-0.263362,6.976704,6.641516
-0.1005559999999999,7.192182000000001,6.6894
-0.339977,6.675035,7.220913
1.991976,7.383717999999999,5.90889
2.020706,7.680599000000001,7.115568
0.105345,7.168239999999999,6.756438
-0.201113,6.440403,7.264008
0.1819589999999999,6.919242999999999,7.240066000000001
0.349553,4.204219,8.734048
0.158017,4.367024,8.647857
2.284068,4.400543,4.510676
3.739743,9.916783,2.901773
-1.072602,6.852206,7.307103999999999
-0.052672,6.818687,6.995857000000001
0.1915359999999999,7.345411,6.746861
-0.287304,7.0820490000000005,6.172251999999999
-0.0957679999999999,7.244855,5.779603
-0.502782,6.406884,6.5792660000000005
-0.354342,6.665458,6.976704
-0.3926489999999999,6.66067,7.010223
-0.344765,6.828264,6.852206
-0.550666,6.933608,6.837839999999999
-0.430956,6.938397,6.924032
-0.459687,6.943185000000001,6.80911
-0.502782,7.134722,6.373365
-0.464475,6.976704,6.837839999999999
-0.167594,6.947974,6.698977
-0.287304,7.393294999999999,6.50744
-0.263362,6.976704,6.641516
-0.1005559999999999,7.192182000000001,6.6894
-0.339977,6.675035,7.220913
1.991976,7.383717999999999,5.90889
2.020706,7.680599000000001,7.115568
0.105345,7.168239999999999,6.756438
-0.201113,6.440403,7.264008
0.1819589999999999,6.919242999999999,7.240066000000001
0.8379709999999999,7.699753,6.033388
0.957681,7.498639999999999,6.153099
2.284068,4.400543,4.510676
3.739743,9.916783,2.901773
-1.072602,6.852206,7.307103999999999
-0.052672,6.818687,6.995857000000001
0.1915359999999999,7.345411,6.746861
-0.287304,7.0820490000000005,6.172251999999999
-0.0957679999999999,7.244855,5.779603
-0.502782,6.406884,6.5792660000000005
-0.354342,6.665458,6.976704
-0.3926489999999999,6.66067,7.010223
-0.344765,6.828264,6.852206
-0.550666,6.933608,6.837839999999999
-0.430956,6.938397,6.924032
-0.459687,6.943185000000001,6.80911
-0.502782,7.134722,6.373365
-0.464475,6.976704,6.837839999999999
-0.167594,6.947974,6.698977
-0.287304,7.393294999999999,6.50744
-0.263362,6.976704,6.641516
-0.1005559999999999,7.192182000000001,6.6894
-0.339977,6.675035,7.220913
1.991976,7.383717999999999,5.90889
2.020706,7.680599000000001,7.115568
0.105345,7.168239999999999,6.756438
-0.201113,6.440403,7.264008
0.1819589999999999,6.919242999999999,7.240066000000001
0.8379709999999999,7.699753,6.033388
0.957681,7.498639999999999,6.153099
0.943315,7.350199000000001,6.646304
0.727837,7.541735000000001,6.114791
-1.072602,6.852206,7.307103999999999
-0.052672,6.818687,6.995857000000001
0.1915359999999999,7.345411,6.746861
-0.287304,7.0820490000000005,6.172251999999999
-0.0957679999999999,7.244855,5.779603
-0.502782,6.406884,6.5792660000000005
-0.354342,6.665458,6.976704
-0.3926489999999999,6.66067,7.010223
-0.344765,6.828264,6.852206
-0.550666,6.933608,6.837839999999999
-0.430956,6.938397,6.924032
-0.459687,6.943185000000001,6.80911
-0.502782,7.134722,6.373365
-0.464475,6.976704,6.837839999999999
-0.167594,6.947974,6.698977
-0.287304,7.393294999999999,6.50744
-0.263362,6.976704,6.641516
-0.1005559999999999,7.192182000000001,6.6894
-0.339977,6.675035,7.220913
1.991976,7.383717999999999,5.90889
2.020706,7.680599000000001,7.115568
0.105345,7.168239999999999,6.756438
-0.201113,6.440403,7.264008
0.1819589999999999,6.919242999999999,7.240066000000001
0.8379709999999999,7.699753,6.033388
0.957681,7.498639999999999,6.153099
0.943315,7.350199000000001,6.646304
0.727837,7.541735000000001,6.114791
0.80924,7.192182000000001,6.531382
0.909797,7.1395100000000005,6.220136
0.1915359999999999,7.345411,6.746861
-0.287304,7.0820490000000005,6.172251999999999
-0.0957679999999999,7.244855,5.779603
-0.502782,6.406884,6.5792660000000005
-0.354342,6.665458,6.976704
-0.3926489999999999,6.66067,7.010223
-0.344765,6.828264,6.852206
-0.550666,6.933608,6.837839999999999
-0.430956,6.938397,6.924032
-0.459687,6.943185000000001,6.80911
-0.502782,7.134722,6.373365
-0.464475,6.976704,6.837839999999999
-0.167594,6.947974,6.698977
-0.287304,7.393294999999999,6.50744
-0.263362,6.976704,6.641516
-0.1005559999999999,7.192182000000001,6.6894
-0.339977,6.675035,7.220913
1.991976,7.383717999999999,5.90889
2.020706,7.680599000000001,7.115568
0.105345,7.168239999999999,6.756438
-0.201113,6.440403,7.264008
0.1819589999999999,6.919242999999999,7.240066000000001
0.8379709999999999,7.699753,6.033388
0.957681,7.498639999999999,6.153099
0.943315,7.350199000000001,6.646304
0.727837,7.541735000000001,6.114791
0.80924,7.192182000000001,6.531382
0.909797,7.1395100000000005,6.220136
0.8283940000000001,7.182606,6.593632
0.8475469999999999,7.474697999999999,6.105214
-0.0957679999999999,7.244855,5.779603
-0.502782,6.406884,6.5792660000000005
-0.354342,6.665458,6.976704
-0.3926489999999999,6.66067,7.010223
-0.344765,6.828264,6.852206
-0.550666,6.933608,6.837839999999999
-0.430956,6.938397,6.924032
-0.459687,6.943185000000001,6.80911
-0.502782,7.134722,6.373365
-0.464475,6.976704,6.837839999999999
-0.167594,6.947974,6.698977
-0.287304,7.393294999999999,6.50744
-0.263362,6.976704,6.641516
-0.1005559999999999,7.192182000000001,6.6894
-0.339977,6.675035,7.220913
1.991976,7.383717999999999,5.90889
2.020706,7.680599000000001,7.115568
0.105345,7.168239999999999,6.756438
-0.201113,6.440403,7.264008
0.1819589999999999,6.919242999999999,7.240066000000001
0.8379709999999999,7.699753,6.033388
0.957681,7.498639999999999,6.153099
0.943315,7.350199000000001,6.646304
0.727837,7.541735000000001,6.114791
0.80924,7.192182000000001,6.531382
0.909797,7.1395100000000005,6.220136
0.8283940000000001,7.182606,6.593632
0.8475469999999999,7.474697999999999,6.105214
0.8236049999999999,7.115568,6.540959
0.938527,6.9671270000000005,6.756438
-0.354342,6.665458,6.976704
-0.3926489999999999,6.66067,7.010223
-0.344765,6.828264,6.852206
-0.550666,6.933608,6.837839999999999
-0.430956,6.938397,6.924032
-0.459687,6.943185000000001,6.80911
-0.502782,7.134722,6.373365
-0.464475,6.976704,6.837839999999999
-0.167594,6.947974,6.698977
-0.287304,7.393294999999999,6.50744
-0.263362,6.976704,6.641516
-0.1005559999999999,7.192182000000001,6.6894
-0.339977,6.675035,7.220913
1.991976,7.383717999999999,5.90889
2.020706,7.680599000000001,7.115568
0.105345,7.168239999999999,6.756438
-0.201113,6.440403,7.264008
0.1819589999999999,6.919242999999999,7.240066000000001
0.8379709999999999,7.699753,6.033388
0.957681,7.498639999999999,6.153099
0.943315,7.350199000000001,6.646304
0.727837,7.541735000000001,6.114791
0.80924,7.192182000000001,6.531382
0.909797,7.1395100000000005,6.220136
0.8283940000000001,7.182606,6.593632
0.8475469999999999,7.474697999999999,6.105214
0.8236049999999999,7.115568,6.540959
0.938527,6.9671270000000005,6.756438
0.957681,6.876148,6.938397
0.919373,6.828264,6.80911
-0.344765,6.828264,6.852206
-0.550666,6.933608,6.837839999999999
-0.430956,6.938397,6.924032
-0.459687,6.943185000000001,6.80911
-0.502782,7.134722,6.373365
-0.464475,6.976704,6.837839999999999
-0.167594,6.947974,6.698977
-0.287304,7.393294999999999,6.50744
-0.263362,6.976704,6.641516
-0.1005559999999999,7.192182000000001,6.6894
-0.339977,6.675035,7.220913
1.991976,7.383717999999999,5.90889
2.020706,7.680599000000001,7.115568
0.105345,7.168239999999999,6.756438
-0.201113,6.440403,7.264008
0.1819589999999999,6.919242999999999,7.240066000000001
0.8379709999999999,7.699753,6.033388
0.957681,7.498639999999999,6.153099
0.943315,7.350199000000001,6.646304
0.727837,7.541735000000001,6.114791
0.80924,7.192182000000001,6.531382
0.909797,7.1395100000000005,6.220136
0.8283940000000001,7.182606,6.593632
0.8475469999999999,7.474697999999999,6.105214
0.8236049999999999,7.115568,6.540959
0.938527,6.9671270000000005,6.756438
0.957681,6.876148,6.938397
0.919373,6.828264,6.80911
0.881066,6.818687,6.95755
0.7852979999999999,6.837839999999999,6.904878
-0.1005559999999999,-0.148441,9.792285
-0.138864,-0.110133,9.782708
-0.114922,-0.1292869999999999,9.77792
-0.1292869999999999,-0.124498,9.782708
-0.138864,-0.138864,9.77792
-0.114922,-0.11971,9.77792
-0.114922,-0.143652,9.758766
0.014365,-0.057461,9.734824
-0.110133,-0.134075,9.77792
-0.153229,-0.124498,9.763555
-0.086191,-0.134075,9.749189
-0.124498,-0.134075,9.782708
-0.138864,-0.134075,9.792285
-0.110133,-0.11971,9.77792
-0.0957679999999999,-0.124498,9.782708
-0.1292869999999999,-0.143652,9.77792
-0.1915359999999999,-0.057461,9.768343
-0.033519,-0.134075,9.758766
-0.134075,-0.033519,9.763555
-0.076614,-0.11971,9.782708
-0.0957679999999999,-0.1723829999999999,9.768343
-0.1292869999999999,-0.1292869999999999,9.763555
-0.1005559999999999,-0.134075,9.758766
-0.114922,-0.081403,9.706094
-0.124498,-0.138864,9.77792
-0.1005559999999999,-0.11971,9.763555
-0.124498,-0.105345,9.77792
-0.0957679999999999,-0.11971,9.792285
-0.105345,-0.105345,9.763555
-0.1292869999999999,-0.1292869999999999,9.773131
-0.430956,6.938397,6.924032
-0.459687,6.943185000000001,6.80911
-0.502782,7.134722,6.373365
-0.464475,6.976704,6.837839999999999
-0.167594,6.947974,6.698977
-0.287304,7.393294999999999,6.50744
-0.263362,6.976704,6.641516
-0.1005559999999999,7.192182000000001,6.6894
-0.339977,6.675035,7.220913
1.991976,7.383717999999999,5.90889
2.020706,7.680599000000001,7.115568
0.105345,7.168239999999999,6.756438
-0.201113,6.440403,7.264008
0.1819589999999999,6.919242999999999,7.240066000000001
0.8379709999999999,7.699753,6.033388
0.957681,7.498639999999999,6.153099
0.943315,7.350199000000001,6.646304
0.727837,7.541735000000001,6.114791
0.80924,7.192182000000001,6.531382
0.909797,7.1395100000000005,6.220136
0.8283940000000001,7.182606,6.593632
0.8475469999999999,7.474697999999999,6.105214
0.8236049999999999,7.115568,6.540959
0.938527,6.9671270000000005,6.756438
0.957681,6.876148,6.938397
0.919373,6.828264,6.80911
0.881066,6.818687,6.95755
0.7852979999999999,6.837839999999999,6.904878
0.842759,7.067683000000001,6.603208
0.814029,7.015011,6.646304
-0.502782,7.134722,6.373365
-0.464475,6.976704,6.837839999999999
-0.167594,6.947974,6.698977
-0.287304,7.393294999999999,6.50744
-0.263362,6.976704,6.641516
-0.1005559999999999,7.192182000000001,6.6894
-0.339977,6.675035,7.220913
1.991976,7.383717999999999,5.90889
2.020706,7.680599000000001,7.115568
0.105345,7.168239999999999,6.756438
-0.201113,6.440403,7.264008
0.1819589999999999,6.919242999999999,7.240066000000001
0.8379709999999999,7.699753,6.033388
0.957681,7.498639999999999,6.153099
0.943315,7.350199000000001,6.646304
0.727837,7.541735000000001,6.114791
0.80924,7.192182000000001,6.531382
0.909797,7.1395100000000005,6.220136
0.8283940000000001,7.182606,6.593632
0.8475469999999999,7.474697999999999,6.105214
0.8236049999999999,7.115568,6.540959
0.938527,6.9671270000000005,6.756438
0.957681,6.876148,6.938397
0.919373,6.828264,6.80911
0.881066,6.818687,6.95755
0.7852979999999999,6.837839999999999,6.904878
0.842759,7.067683000000001,6.603208
0.814029,7.015011,6.646304
0.742203,6.943185000000001,6.770803
0.656011,7.029375999999999,6.66067
-0.167594,6.947974,6.698977
-0.287304,7.393294999999999,6.50744
-0.263362,6.976704,6.641516
-0.1005559999999999,7.192182000000001,6.6894
-0.339977,6.675035,7.220913
1.991976,7.383717999999999,5.90889
2.020706,7.680599000000001,7.115568
0.105345,7.168239999999999,6.756438
-0.201113,6.440403,7.264008
0.1819589999999999,6.919242999999999,7.240066000000001
0.8379709999999999,7.699753,6.033388
0.957681,7.498639999999999,6.153099
0.943315,7.350199000000001,6.646304
0.727837,7.541735000000001,6.114791
0.80924,7.192182000000001,6.531382
0.909797,7.1395100000000005,6.220136
0.8283940000000001,7.182606,6.593632
0.8475469999999999,7.474697999999999,6.105214
0.8236049999999999,7.115568,6.540959
0.938527,6.9671270000000005,6.756438
0.957681,6.876148,6.938397
0.919373,6.828264,6.80911
0.881066,6.818687,6.95755
0.7852979999999999,6.837839999999999,6.904878
0.842759,7.067683000000001,6.603208
0.814029,7.015011,6.646304
0.742203,6.943185000000001,6.770803
0.656011,7.029375999999999,6.66067
0.593762,7.101202000000001,6.804322
0.474052,7.101202000000001,6.636728
-0.263362,6.976704,6.641516
-0.1005559999999999,7.192182000000001,6.6894
-0.339977,6.675035,7.220913
1.991976,7.383717999999999,5.90889
2.020706,7.680599000000001,7.115568
0.105345,7.168239999999999,6.756438
-0.201113,6.440403,7.264008
0.1819589999999999,6.919242999999999,7.240066000000001
0.8379709999999999,7.699753,6.033388
0.957681,7.498639999999999,6.153099
0.943315,7.350199000000001,6.646304
0.727837,7.541735000000001,6.114791
0.80924,7.192182000000001,6.531382
0.909797,7.1395100000000005,6.220136
0.8283940000000001,7.182606,6.593632
0.8475469999999999,7.474697999999999,6.105214
0.8236049999999999,7.115568,6.540959
0.938527,6.9671270000000005,6.756438
0.957681,6.876148,6.938397
0.919373,6.828264,6.80911
0.881066,6.818687,6.95755
0.7852979999999999,6.837839999999999,6.904878
0.842759,7.067683000000001,6.603208
0.814029,7.015011,6.646304
0.742203,6.943185000000001,6.770803
0.656011,7.029375999999999,6.66067
0.593762,7.101202000000001,6.804322
0.474052,7.101202000000001,6.636728
0.536301,7.077260000000001,6.6941880000000005
0.493206,6.962339,6.7277070000000005
-0.339977,6.675035,7.220913
1.991976,7.383717999999999,5.90889
2.020706,7.680599000000001,7.115568
0.105345,7.168239999999999,6.756438
-0.201113,6.440403,7.264008
0.1819589999999999,6.919242999999999,7.240066000000001
0.8379709999999999,7.699753,6.033388
0.957681,7.498639999999999,6.153099
0.943315,7.350199000000001,6.646304
0.727837,7.541735000000001,6.114791
0.80924,7.192182000000001,6.531382
0.909797,7.1395100000000005,6.220136
0.8283940000000001,7.182606,6.593632
0.8475469999999999,7.474697999999999,6.105214
0.8236049999999999,7.115568,6.540959
0.938527,6.9671270000000005,6.756438
0.957681,6.876148,6.938397
0.919373,6.828264,6.80911
0.881066,6.818687,6.95755
0.7852979999999999,6.837839999999999,6.904878
0.842759,7.067683000000001,6.603208
0.814029,7.015011,6.646304
0.742203,6.943185000000001,6.770803
0.656011,7.029375999999999,6.66067
0.593762,7.101202000000001,6.804322
0.474052,7.101202000000001,6.636728
0.536301,7.077260000000001,6.6941880000000005
0.493206,6.962339,6.7277070000000005
0.459687,7.000646000000001,6.646304
0.277727,6.6941880000000005,6.7516490000000005
2.020706,7.680599000000001,7.115568
0.105345,7.168239999999999,6.756438
-0.201113,6.440403,7.264008
0.1819589999999999,6.919242999999999,7.240066000000001
0.8379709999999999,7.699753,6.033388
0.957681,7.498639999999999,6.153099
0.943315,7.350199000000001,6.646304
0.727837,7.541735000000001,6.114791
0.80924,7.192182000000001,6.531382
0.909797,7.1395100000000005,6.220136
0.8283940000000001,7.182606,6.593632
0.8475469999999999,7.474697999999999,6.105214
0.8236049999999999,7.115568,6.540959
0.938527,6.9671270000000005,6.756438
0.957681,6.876148,6.938397
0.919373,6.828264,6.80911
0.881066,6.818687,6.95755
0.7852979999999999,6.837839999999999,6.904878
0.842759,7.067683000000001,6.603208
0.814029,7.015011,6.646304
0.742203,6.943185000000001,6.770803
0.656011,7.029375999999999,6.66067
0.593762,7.101202000000001,6.804322
0.474052,7.101202000000001,6.636728
0.536301,7.077260000000001,6.6941880000000005
0.493206,6.962339,6.7277070000000005
0.459687,7.000646000000001,6.646304
0.277727,6.6941880000000005,6.7516490000000005
0.464475,6.761226,7.019799000000001
0.474052,6.617574,6.770803
-0.201113,6.440403,7.264008
0.1819589999999999,6.919242999999999,7.240066000000001
0.8379709999999999,7.699753,6.033388
0.957681,7.498639999999999,6.153099
0.943315,7.350199000000001,6.646304
0.727837,7.541735000000001,6.114791
0.80924,7.192182000000001,6.531382
0.909797,7.1395100000000005,6.220136
0.8283940000000001,7.182606,6.593632
0.8475469999999999,7.474697999999999,6.105214
0.8236049999999999,7.115568,6.540959
0.938527,6.9671270000000005,6.756438
0.957681,6.876148,6.938397
0.919373,6.828264,6.80911
0.881066,6.818687,6.95755
0.7852979999999999,6.837839999999999,6.904878
0.842759,7.067683000000001,6.603208
0.814029,7.015011,6.646304
0.742203,6.943185000000001,6.770803
0.656011,7.029375999999999,6.66067
0.593762,7.101202000000001,6.804322
0.474052,7.101202000000001,6.636728
0.536301,7.077260000000001,6.6941880000000005
0.493206,6.962339,6.7277070000000005
0.459687,7.000646000000001,6.646304
0.277727,6.6941880000000005,6.7516490000000005
0.464475,6.761226,7.019799000000001
0.474052,6.617574,6.770803
0.344765,6.627151,7.359775999999999
0.397437,6.708554,7.331046000000001
0.8379709999999999,7.699753,6.033388
0.957681,7.498639999999999,6.153099
0.943315,7.350199000000001,6.646304
0.727837,7.541735000000001,6.114791
0.80924,7.192182000000001,6.531382
0.909797,7.1395100000000005,6.220136
0.8283940000000001,7.182606,6.593632
0.8475469999999999,7.474697999999999,6.105214
0.8236049999999999,7.115568,6.540959
0.938527,6.9671270000000005,6.756438
0.957681,6.876148,6.938397
0.919373,6.828264,6.80911
0.881066,6.818687,6.95755
0.7852979999999999,6.837839999999999,6.904878
0.842759,7.067683000000001,6.603208
0.814029,7.015011,6.646304
0.742203,6.943185000000001,6.770803
0.656011,7.029375999999999,6.66067
0.593762,7.101202000000001,6.804322
0.474052,7.101202000000001,6.636728
0.536301,7.077260000000001,6.6941880000000005
0.493206,6.962339,6.7277070000000005
0.459687,7.000646000000001,6.646304
0.277727,6.6941880000000005,6.7516490000000005
0.464475,6.761226,7.019799000000001
0.474052,6.617574,6.770803
0.344765,6.627151,7.359775999999999
0.397437,6.708554,7.331046000000001
0.062249,6.440403,6.986281
0.110133,6.56969,7.211336
0.943315,7.350199000000001,6.646304
0.727837,7.541735000000001,6.114791
0.80924,7.192182000000001,6.531382
0.909797,7.1395100000000005,6.220136
0.8283940000000001,7.182606,6.593632
0.8475469999999999,7.474697999999999,6.105214
0.8236049999999999,7.115568,6.540959
0.938527,6.9671270000000005,6.756438
0.957681,6.876148,6.938397
0.919373,6.828264,6.80911
0.881066,6.818687,6.95755
0.7852979999999999,6.837839999999999,6.904878
0.842759,7.067683000000001,6.603208
0.814029,7.015011,6.646304
0.742203,6.943185000000001,6.770803
0.656011,7.029375999999999,6.66067
0.593762,7.101202000000001,6.804322
0.474052,7.101202000000001,6.636728
0.536301,7.077260000000001,6.6941880000000005
0.493206,6.962339,6.7277070000000005
0.459687,7.000646000000001,6.646304
0.277727,6.6941880000000005,6.7516490000000005
0.464475,6.761226,7.019799000000001
0.474052,6.617574,6.770803
0.344765,6.627151,7.359775999999999
0.397437,6.708554,7.331046000000001
0.062249,6.440403,6.986281
0.110133,6.56969,7.211336
0.158017,6.56969,7.278372999999999
0.1723829999999999,6.469133,6.986281
0.80924,7.192182000000001,6.531382
0.909797,7.1395100000000005,6.220136
0.8283940000000001,7.182606,6.593632
0.8475469999999999,7.474697999999999,6.105214
0.8236049999999999,7.115568,6.540959
0.938527,6.9671270000000005,6.756438
0.957681,6.876148,6.938397
0.919373,6.828264,6.80911
0.881066,6.818687,6.95755
0.7852979999999999,6.837839999999999,6.904878
0.842759,7.067683000000001,6.603208
0.814029,7.015011,6.646304
0.742203,6.943185000000001,6.770803
0.656011,7.029375999999999,6.66067
0.593762,7.101202000000001,6.804322
0.474052,7.101202000000001,6.636728
0.536301,7.077260000000001,6.6941880000000005
0.493206,6.962339,6.7277070000000005
0.459687,7.000646000000001,6.646304
0.277727,6.6941880000000005,6.7516490000000005
0.464475,6.761226,7.019799000000001
0.474052,6.617574,6.770803
0.344765,6.627151,7.359775999999999
0.397437,6.708554,7.331046000000001
0.062249,6.440403,6.986281
0.110133,6.56969,7.211336
0.158017,6.56969,7.278372999999999
0.1723829999999999,6.469133,6.986281
0.306458,6.50744,7.441178999999999
0.325611,6.435614,7.115568
-0.114922,-0.1292869999999999,9.77792
-0.1292869999999999,-0.124498,9.782708
-0.138864,-0.138864,9.77792
-0.114922,-0.11971,9.77792
-0.114922,-0.143652,9.758766
0.014365,-0.057461,9.734824
-0.110133,-0.134075,9.77792
-0.153229,-0.124498,9.763555
-0.086191,-0.134075,9.749189
-0.124498,-0.134075,9.782708
-0.138864,-0.134075,9.792285
-0.110133,-0.11971,9.77792
-0.0957679999999999,-0.124498,9.782708
-0.1292869999999999,-0.143652,9.77792
-0.1915359999999999,-0.057461,9.768343
-0.033519,-0.134075,9.758766
-0.134075,-0.033519,9.763555
-0.076614,-0.11971,9.782708
-0.0957679999999999,-0.1723829999999999,9.768343
-0.1292869999999999,-0.1292869999999999,9.763555
-0.1005559999999999,-0.134075,9.758766
-0.114922,-0.081403,9.706094
-0.124498,-0.138864,9.77792
-0.1005559999999999,-0.11971,9.763555
-0.124498,-0.105345,9.77792
-0.0957679999999999,-0.11971,9.792285
-0.105345,-0.105345,9.763555
-0.1292869999999999,-0.1292869999999999,9.773131
-0.0957679999999999,-0.124498,9.782708
-0.0957679999999999,-0.148441,9.758766
0.8283940000000001,7.182606,6.593632
0.8475469999999999,7.474697999999999,6.105214
0.8236049999999999,7.115568,6.540959
0.938527,6.9671270000000005,6.756438
0.957681,6.876148,6.938397
0.919373,6.828264,6.80911
0.881066,6.818687,6.95755
0.7852979999999999,6.837839999999999,6.904878
0.842759,7.067683000000001,6.603208
0.814029,7.015011,6.646304
0.742203,6.943185000000001,6.770803
0.656011,7.029375999999999,6.66067
0.593762,7.101202000000001,6.804322
0.474052,7.101202000000001,6.636728
0.536301,7.077260000000001,6.6941880000000005
0.493206,6.962339,6.7277070000000005
0.459687,7.000646000000001,6.646304
0.277727,6.6941880000000005,6.7516490000000005
0.464475,6.761226,7.019799000000001
0.474052,6.617574,6.770803
0.344765,6.627151,7.359775999999999
0.397437,6.708554,7.331046000000001
0.062249,6.440403,6.986281
0.110133,6.56969,7.211336
0.158017,6.56969,7.278372999999999
0.1723829999999999,6.469133,6.986281
0.306458,6.50744,7.441178999999999
0.325611,6.435614,7.115568
0.68953,6.488287000000001,6.995857000000001
0.799663,6.421249,7.005433999999999
0.8236049999999999,7.115568,6.540959
0.938527,6.9671270000000005,6.756438
0.957681,6.876148,6.938397
0.919373,6.828264,6.80911
0.881066,6.818687,6.95755
0.7852979999999999,6.837839999999999,6.904878
0.842759,7.067683000000001,6.603208
0.814029,7.015011,6.646304
0.742203,6.943185000000001,6.770803
0.656011,7.029375999999999,6.66067
0.593762,7.101202000000001,6.804322
0.474052,7.101202000000001,6.636728
0.536301,7.077260000000001,6.6941880000000005
0.493206,6.962339,6.7277070000000005
0.459687,7.000646000000001,6.646304
0.277727,6.6941880000000005,6.7516490000000005
0.464475,6.761226,7.019799000000001
0.474052,6.617574,6.770803
0.344765,6.627151,7.359775999999999
0.397437,6.708554,7.331046000000001
0.062249,6.440403,6.986281
0.110133,6.56969,7.211336
0.158017,6.56969,7.278372999999999
0.1723829999999999,6.469133,6.986281
0.306458,6.50744,7.441178999999999
0.325611,6.435614,7.115568
0.68953,6.488287000000001,6.995857000000001
0.799663,6.421249,7.005433999999999
0.742203,6.277597,7.23049
0.6033390000000001,6.258444,7.340623
0.957681,6.876148,6.938397
0.919373,6.828264,6.80911
0.881066,6.818687,6.95755
0.7852979999999999,6.837839999999999,6.904878
0.842759,7.067683000000001,6.603208
0.814029,7.015011,6.646304
0.742203,6.943185000000001,6.770803
0.656011,7.029375999999999,6.66067
0.593762,7.101202000000001,6.804322
0.474052,7.101202000000001,6.636728
0.536301,7.077260000000001,6.6941880000000005
0.493206,6.962339,6.7277070000000005
0.459687,7.000646000000001,6.646304
0.277727,6.6941880000000005,6.7516490000000005
0.464475,6.761226,7.019799000000001
0.474052,6.617574,6.770803
0.344765,6.627151,7.359775999999999
0.397437,6.708554,7.331046000000001
0.062249,6.440403,6.986281
0.110133,6.56969,7.211336
0.158017,6.56969,7.278372999999999
0.1723829999999999,6.469133,6.986281
0.306458,6.50744,7.441178999999999
0.325611,6.435614,7.115568
0.68953,6.488287000000001,6.995857000000001
0.799663,6.421249,7.005433999999999
0.742203,6.277597,7.23049
0.6033390000000001,6.258444,7.340623
0.579397,6.244078,7.254430999999999
0.368707,6.363788,7.292739
0.881066,6.818687,6.95755
0.7852979999999999,6.837839999999999,6.904878
0.842759,7.067683000000001,6.603208
0.814029,7.015011,6.646304
0.742203,6.943185000000001,6.770803
0.656011,7.029375999999999,6.66067
0.593762,7.101202000000001,6.804322
0.474052,7.101202000000001,6.636728
0.536301,7.077260000000001,6.6941880000000005
0.493206,6.962339,6.7277070000000005
0.459687,7.000646000000001,6.646304
0.277727,6.6941880000000005,6.7516490000000005
0.464475,6.761226,7.019799000000001
0.474052,6.617574,6.770803
0.344765,6.627151,7.359775999999999
0.397437,6.708554,7.331046000000001
