accelerometer_X,accelerometer_Y,accelerometer_Z
2.322376,3.643975,11.827356
1.781286,4.668694,6.14831
7.963114999999999,-4.113238,1.359907
1.996764,-1.3982139999999998,1.163582
5.185841,-12.143391,4.6878470000000005
11.219229,-10.625467,-8.087613000000001
10.888829,-13.939042,-1.273715
9.902418,-9.667787,-0.110133
8.09719,-20.9349,1.393425
5.655105000000001,-11.573571,-1.106121
12.363658,-18.253393,-21.44247
5.171476,-9.169792,0.407014
-1.92015,-3.648763,0.244209
0.11971,-7.819463000000001,0.234632
4.908114,-11.271901,-2.561796
0.363919,-15.289372,-1.977611
5.0757080000000006,-10.682928,-1.565808
-2.097321,-13.431472,4.252103
4.563349,-10.31901,0.45011
0.8379709999999999,-5.544971,-1.441309
2.5378540000000003,-8.408437,0.277727
2.494758,-5.980716,2.312799
-2.351106,-14.432248,-0.972046
6.540959,-10.903194,-2.03986
5.214572,-10.749966,-6.234501
4.644751,-12.392388,-1.211466
5.923255,-13.977348999999998,-7.785944000000001
5.33907,-9.495404,0.632069
-2.389413,-4.831499,0.938527
-0.21069,-8.872911,0.0430959999999999
4.563349,-10.31901,0.45011
0.8379709999999999,-5.544971,-1.441309
2.5378540000000003,-8.408437,0.277727
2.494758,-5.980716,2.312799
-2.351106,-14.432248,-0.972046
6.540959,-10.903194,-2.03986
5.214572,-10.749966,-6.234501
4.644751,-12.392388,-1.211466
5.923255,-13.977348999999998,-7.785944000000001
5.33907,-9.495404,0.632069
-2.389413,-4.831499,0.938527
-0.21069,-8.872911,0.0430959999999999
1.7573439999999998,-12.737153,-2.384625
0.162806,-2.15957,19.589357
3.974375,-12.349293,-2.097321
7.527369999999999,-20.058622,-16.682798000000002
0.6608,-9.65821,-0.995988
-1.264138,-2.442086,1.407791
-2.964022,-9.203311,-0.967257
-1.556231,-3.122039,1.958457
-4.721366000000001,-8.781932000000001,0.311246
-5.837064,-17.606958,-0.02873
-2.542642,3.423709,21.648373
4.276045,-13.618219,0.1723829999999999
2.767697,-19.268536,-26.3027
-0.871489,-9.80665,-3.428497
-1.599327,-3.878607,3.246538
-5.152322,-9.255983,-1.23062
-9.504981,-17.650055,-0.7661439999999999
-3.045424,-8.494628,-0.8236049999999999
0.009577,-13.235147,-3.557784
-2.992752,-13.637373,-8.944737
-0.670376,-10.611102,-1.091756
-2.3606830000000003,-1.594538,2.011129
-2.331952,-7.671022,-0.35913
-4.395754,-11.573571,-2.03986
-9.993398,1.580173,-11.587936
-3.409343,-13.158532,-3.677494
-14.159308,-18.11453,-20.077776
-3.007117,-7.541735000000001,0.799663
-2.351106,-3.744531,2.513912
-1.517924,-8.513782,0.8523360000000001
1.278504,-8.872911,0.0430959999999999
-1.656788,-10.941502,0.8619129999999999
-3.969586,-13.354857,-3.083732
-1.613692,-9.672575,-5.133168
-0.991199,-9.667787,-1.177947
-2.097321,0.292093,2.767697
-5.655104,-6.488286,-0.933739
-7.345411,-12.717999,-1.838747
0.555455,-10.874464,23.582888
-9.155427,-11.654974,-1.388637
-6.660669,5.214572,-2.8155810000000003
-1.848324,-12.65575,-3.65834
-7.278372999999999,-14.686032999999998,-10.065224
-3.5960910000000004,-9.016563,-1.484405
-2.37026,-1.192312,3.055001
-5.473145,-6.517017,-0.713472
-5.061342,-11.808203,-2.5378540000000003
-2.743755,1.244985,-0.440533
0.80924,-15.897499,-1.666364
-3.356671,-13.153744,-12.804191
1.426944,-5.262455,-0.651223
-0.263362,-6.019023000000001,1.235408
-4.352658,-9.32781,0.713472
-3.955221,-16.49605,3.438074
-2.705448,-7.436389999999999,1.383849
-4.577713,-17.645266,1.944092
7.192182000000001,-25.201366,-16.903064999999998
1.575385,-10.620679,1.58975
-0.02873,-5.425261,0.8236049999999999
3.4189199999999995,-6.675033999999999,1.158794
1.891419,-11.669339,-1.570596
-1.647211,-5.305551,9.169792
3.399767,-15.586253,-0.8044520000000001
4.572925,0.1819589999999999,32.59945
5.60722,-13.005303,-0.378284
3.672706,-10.874464,-7.058106
1.939303,-9.097966,-2.782062
-0.344765,-4.161122,1.23062
-0.387861,-9.174581,3.031059
-7.359775999999999,-15.322891,0.8523360000000001
11.113884,-19.603724,-3.921702
5.1092260000000005,-15.452178,-1.47004
6.373365,-11.741165,-8.226476
3.2896330000000003,-9.993398,-0.3830719999999999
-2.978387,-3.0502130000000003,1.273715
-4.34787,-9.92636,-1.642422
-4.256891,-17.166426,-2.054225
-12.277467,6.435614,2.853889
1.426944,-5.262455,-0.651223
-0.263362,-6.019023000000001,1.235408
-4.352658,-9.32781,0.713472
-3.955221,-16.49605,3.438074
-2.705448,-7.436389999999999,1.383849
-4.577713,-17.645266,1.944092
7.192182000000001,-25.201366,-16.903064999999998
1.575385,-10.620679,1.58975
-0.02873,-5.425261,0.8236049999999999
3.4189199999999995,-6.675033999999999,1.158794
1.891419,-11.669339,-1.570596
-1.647211,-5.305551,9.169792
3.399767,-15.586253,-0.8044520000000001
4.572925,0.1819589999999999,32.59945
5.60722,-13.005303,-0.378284
3.672706,-10.874464,-7.058106
1.939303,-9.097966,-2.782062
-0.344765,-4.161122,1.23062
-0.387861,-9.174581,3.031059
-7.359775999999999,-15.322891,0.8523360000000001
11.113884,-19.603724,-3.921702
5.1092260000000005,-15.452178,-1.47004
6.373365,-11.741165,-8.226476
3.2896330000000003,-9.993398,-0.3830719999999999
-2.978387,-3.0502130000000003,1.273715
-4.34787,-9.92636,-1.642422
-4.256891,-17.166426,-2.054225
-12.277467,6.435614,2.853889
-7.8865,-16.82645,4.912902
4.13718,-23.673866,-10.807426
-4.352658,-9.32781,0.713472
-3.955221,-16.49605,3.438074
-2.705448,-7.436389999999999,1.383849
-4.577713,-17.645266,1.944092
7.192182000000001,-25.201366,-16.903064999999998
1.575385,-10.620679,1.58975
-0.02873,-5.425261,0.8236049999999999
3.4189199999999995,-6.675033999999999,1.158794
1.891419,-11.669339,-1.570596
-1.647211,-5.305551,9.169792
3.399767,-15.586253,-0.8044520000000001
4.572925,0.1819589999999999,32.59945
5.60722,-13.005303,-0.378284
3.672706,-10.874464,-7.058106
1.939303,-9.097966,-2.782062
-0.344765,-4.161122,1.23062
-0.387861,-9.174581,3.031059
-7.359775999999999,-15.322891,0.8523360000000001
11.113884,-19.603724,-3.921702
5.1092260000000005,-15.452178,-1.47004
6.373365,-11.741165,-8.226476
3.2896330000000003,-9.993398,-0.3830719999999999
-2.978387,-3.0502130000000003,1.273715
-4.34787,-9.92636,-1.642422
-4.256891,-17.166426,-2.054225
-12.277467,6.435614,2.853889
-7.8865,-16.82645,4.912902
4.13718,-23.673866,-10.807426
2.523489,-10.070012,0.158017
-0.143652,-3.572149,1.862689
-2.705448,-7.436389999999999,1.383849
-4.577713,-17.645266,1.944092
7.192182000000001,-25.201366,-16.903064999999998
1.575385,-10.620679,1.58975
-0.02873,-5.425261,0.8236049999999999
3.4189199999999995,-6.675033999999999,1.158794
1.891419,-11.669339,-1.570596
-1.647211,-5.305551,9.169792
3.399767,-15.586253,-0.8044520000000001
4.572925,0.1819589999999999,32.59945
5.60722,-13.005303,-0.378284
3.672706,-10.874464,-7.058106
1.939303,-9.097966,-2.782062
-0.344765,-4.161122,1.23062
-0.387861,-9.174581,3.031059
-7.359775999999999,-15.322891,0.8523360000000001
11.113884,-19.603724,-3.921702
5.1092260000000005,-15.452178,-1.47004
6.373365,-11.741165,-8.226476
3.2896330000000003,-9.993398,-0.3830719999999999
-2.978387,-3.0502130000000003,1.273715
-4.34787,-9.92636,-1.642422
-4.256891,-17.166426,-2.054225
-12.277467,6.435614,2.853889
-7.8865,-16.82645,4.912902
4.13718,-23.673866,-10.807426
2.523489,-10.070012,0.158017
-0.143652,-3.572149,1.862689
1.221043,-7.963114,-0.737414
6.105214,-8.504205,0.306458
7.192182000000001,-25.201366,-16.903064999999998
1.575385,-10.620679,1.58975
-0.02873,-5.425261,0.8236049999999999
3.4189199999999995,-6.675033999999999,1.158794
1.891419,-11.669339,-1.570596
-1.647211,-5.305551,9.169792
3.399767,-15.586253,-0.8044520000000001
4.572925,0.1819589999999999,32.59945
5.60722,-13.005303,-0.378284
3.672706,-10.874464,-7.058106
1.939303,-9.097966,-2.782062
-0.344765,-4.161122,1.23062
-0.387861,-9.174581,3.031059
-7.359775999999999,-15.322891,0.8523360000000001
11.113884,-19.603724,-3.921702
5.1092260000000005,-15.452178,-1.47004
6.373365,-11.741165,-8.226476
3.2896330000000003,-9.993398,-0.3830719999999999
-2.978387,-3.0502130000000003,1.273715
-4.34787,-9.92636,-1.642422
-4.256891,-17.166426,-2.054225
-12.277467,6.435614,2.853889
-7.8865,-16.82645,4.912902
4.13718,-23.673866,-10.807426
2.523489,-10.070012,0.158017
-0.143652,-3.572149,1.862689
1.221043,-7.963114,-0.737414
6.105214,-8.504205,0.306458
-2.925714,-21.298819,5.612009
3.347094,-13.302185,-2.020706
-0.02873,-5.425261,0.8236049999999999
3.4189199999999995,-6.675033999999999,1.158794
1.891419,-11.669339,-1.570596
-1.647211,-5.305551,9.169792
3.399767,-15.586253,-0.8044520000000001
4.572925,0.1819589999999999,32.59945
5.60722,-13.005303,-0.378284
3.672706,-10.874464,-7.058106
1.939303,-9.097966,-2.782062
-0.344765,-4.161122,1.23062
-0.387861,-9.174581,3.031059
-7.359775999999999,-15.322891,0.8523360000000001
11.113884,-19.603724,-3.921702
5.1092260000000005,-15.452178,-1.47004
6.373365,-11.741165,-8.226476
3.2896330000000003,-9.993398,-0.3830719999999999
-2.978387,-3.0502130000000003,1.273715
-4.34787,-9.92636,-1.642422
-4.256891,-17.166426,-2.054225
-12.277467,6.435614,2.853889
-7.8865,-16.82645,4.912902
4.13718,-23.673866,-10.807426
2.523489,-10.070012,0.158017
-0.143652,-3.572149,1.862689
1.221043,-7.963114,-0.737414
6.105214,-8.504205,0.306458
-2.925714,-21.298819,5.612009
3.347094,-13.302185,-2.020706
-4.170699,-15.801731,0.162806
1.173159,-14.092270999999998,-0.636858
1.891419,-11.669339,-1.570596
-1.647211,-5.305551,9.169792
3.399767,-15.586253,-0.8044520000000001
4.572925,0.1819589999999999,32.59945
5.60722,-13.005303,-0.378284
3.672706,-10.874464,-7.058106
1.939303,-9.097966,-2.782062
-0.344765,-4.161122,1.23062
-0.387861,-9.174581,3.031059
-7.359775999999999,-15.322891,0.8523360000000001
11.113884,-19.603724,-3.921702
5.1092260000000005,-15.452178,-1.47004
6.373365,-11.741165,-8.226476
3.2896330000000003,-9.993398,-0.3830719999999999
-2.978387,-3.0502130000000003,1.273715
-4.34787,-9.92636,-1.642422
-4.256891,-17.166426,-2.054225
-12.277467,6.435614,2.853889
-7.8865,-16.82645,4.912902
4.13718,-23.673866,-10.807426
2.523489,-10.070012,0.158017
-0.143652,-3.572149,1.862689
1.221043,-7.963114,-0.737414
6.105214,-8.504205,0.306458
-2.925714,-21.298819,5.612009
3.347094,-13.302185,-2.020706
-4.170699,-15.801731,0.162806
1.173159,-14.092270999999998,-0.636858
1.11091,-8.954314,-8.887277000000001
0.0478839999999999,-8.571242,0.790087
3.399767,-15.586253,-0.8044520000000001
4.572925,0.1819589999999999,32.59945
5.60722,-13.005303,-0.378284
3.672706,-10.874464,-7.058106
1.939303,-9.097966,-2.782062
-0.344765,-4.161122,1.23062
-0.387861,-9.174581,3.031059
-7.359775999999999,-15.322891,0.8523360000000001
11.113884,-19.603724,-3.921702
5.1092260000000005,-15.452178,-1.47004
6.373365,-11.741165,-8.226476
3.2896330000000003,-9.993398,-0.3830719999999999
-2.978387,-3.0502130000000003,1.273715
-4.34787,-9.92636,-1.642422
-4.256891,-17.166426,-2.054225
-12.277467,6.435614,2.853889
-7.8865,-16.82645,4.912902
4.13718,-23.673866,-10.807426
2.523489,-10.070012,0.158017
-0.143652,-3.572149,1.862689
1.221043,-7.963114,-0.737414
6.105214,-8.504205,0.306458
-2.925714,-21.298819,5.612009
3.347094,-13.302185,-2.020706
-4.170699,-15.801731,0.162806
1.173159,-14.092270999999998,-0.636858
1.11091,-8.954314,-8.887277000000001
0.0478839999999999,-8.571242,0.790087
2.494758,-5.674258,1.034295
11.894394,-11.429919,-8.049306
5.60722,-13.005303,-0.378284
3.672706,-10.874464,-7.058106
1.939303,-9.097966,-2.782062
-0.344765,-4.161122,1.23062
-0.387861,-9.174581,3.031059
-7.359775999999999,-15.322891,0.8523360000000001
11.113884,-19.603724,-3.921702
5.1092260000000005,-15.452178,-1.47004
6.373365,-11.741165,-8.226476
3.2896330000000003,-9.993398,-0.3830719999999999
-2.978387,-3.0502130000000003,1.273715
-4.34787,-9.92636,-1.642422
-4.256891,-17.166426,-2.054225
-12.277467,6.435614,2.853889
-7.8865,-16.82645,4.912902
4.13718,-23.673866,-10.807426
2.523489,-10.070012,0.158017
-0.143652,-3.572149,1.862689
1.221043,-7.963114,-0.737414
6.105214,-8.504205,0.306458
-2.925714,-21.298819,5.612009
3.347094,-13.302185,-2.020706
-4.170699,-15.801731,0.162806
1.173159,-14.092270999999998,-0.636858
1.11091,-8.954314,-8.887277000000001
0.0478839999999999,-8.571242,0.790087
2.494758,-5.674258,1.034295
11.894394,-11.429919,-8.049306
-9.323022,-15.844827,1.824382
-1.278504,-17.334020000000002,-14.245501
1.939303,-9.097966,-2.782062
-0.344765,-4.161122,1.23062
-0.387861,-9.174581,3.031059
-7.359775999999999,-15.322891,0.8523360000000001
11.113884,-19.603724,-3.921702
5.1092260000000005,-15.452178,-1.47004
6.373365,-11.741165,-8.226476
3.2896330000000003,-9.993398,-0.3830719999999999
-2.978387,-3.0502130000000003,1.273715
-4.34787,-9.92636,-1.642422
-4.256891,-17.166426,-2.054225
-12.277467,6.435614,2.853889
-7.8865,-16.82645,4.912902
4.13718,-23.673866,-10.807426
2.523489,-10.070012,0.158017
-0.143652,-3.572149,1.862689
1.221043,-7.963114,-0.737414
6.105214,-8.504205,0.306458
-2.925714,-21.298819,5.612009
3.347094,-13.302185,-2.020706
-4.170699,-15.801731,0.162806
1.173159,-14.092270999999998,-0.636858
1.11091,-8.954314,-8.887277000000001
0.0478839999999999,-8.571242,0.790087
2.494758,-5.674258,1.034295
11.894394,-11.429919,-8.049306
-9.323022,-15.844827,1.824382
-1.278504,-17.334020000000002,-14.245501
5.042189,-14.518439,-5.63595
-0.474052,-10.237606,-9.222465
-0.670376,-10.611102,-1.091756
-2.3606830000000003,-1.594538,2.011129
-2.331952,-7.671022,-0.35913
-4.395754,-11.573571,-2.03986
-9.993398,1.580173,-11.587936
-3.409343,-13.158532,-3.677494
-14.159308,-18.11453,-20.077776
-3.007117,-7.541735000000001,0.799663
-2.351106,-3.744531,2.513912
-1.517924,-8.513782,0.8523360000000001
1.278504,-8.872911,0.0430959999999999
-1.656788,-10.941502,0.8619129999999999
-3.969586,-13.354857,-3.083732
-1.613692,-9.672575,-5.133168
-0.991199,-9.667787,-1.177947
-2.097321,0.292093,2.767697
-5.655104,-6.488286,-0.933739
-7.345411,-12.717999,-1.838747
0.555455,-10.874464,23.582888
-9.155427,-11.654974,-1.388637
-6.660669,5.214572,-2.8155810000000003
-1.848324,-12.65575,-3.65834
-7.278372999999999,-14.686032999999998,-10.065224
-3.5960910000000004,-9.016563,-1.484405
-2.37026,-1.192312,3.055001
-5.473145,-6.517017,-0.713472
-5.061342,-11.808203,-2.5378540000000003
-2.743755,1.244985,-0.440533
-3.2321720000000003,-13.469779,-2.446874
-4.285621,8.073248,2.9257150000000003
-0.387861,-9.174581,3.031059
-7.359775999999999,-15.322891,0.8523360000000001
11.113884,-19.603724,-3.921702
5.1092260000000005,-15.452178,-1.47004
6.373365,-11.741165,-8.226476
3.2896330000000003,-9.993398,-0.3830719999999999
-2.978387,-3.0502130000000003,1.273715
-4.34787,-9.92636,-1.642422
-4.256891,-17.166426,-2.054225
-12.277467,6.435614,2.853889
-7.8865,-16.82645,4.912902
4.13718,-23.673866,-10.807426
2.523489,-10.070012,0.158017
-0.143652,-3.572149,1.862689
1.221043,-7.963114,-0.737414
6.105214,-8.504205,0.306458
-2.925714,-21.298819,5.612009
3.347094,-13.302185,-2.020706
-4.170699,-15.801731,0.162806
1.173159,-14.092270999999998,-0.636858
1.11091,-8.954314,-8.887277000000001
0.0478839999999999,-8.571242,0.790087
2.494758,-5.674258,1.034295
11.894394,-11.429919,-8.049306
-9.323022,-15.844827,1.824382
-1.278504,-17.334020000000002,-14.245501
5.042189,-14.518439,-5.63595
-0.474052,-10.237606,-9.222465
2.873042,-10.261548,0.4979939999999999
-2.911349,-3.782838,1.13964
11.113884,-19.603724,-3.921702
5.1092260000000005,-15.452178,-1.47004
6.373365,-11.741165,-8.226476
3.2896330000000003,-9.993398,-0.3830719999999999
-2.978387,-3.0502130000000003,1.273715
-4.34787,-9.92636,-1.642422
-4.256891,-17.166426,-2.054225
-12.277467,6.435614,2.853889
-7.8865,-16.82645,4.912902
4.13718,-23.673866,-10.807426
2.523489,-10.070012,0.158017
-0.143652,-3.572149,1.862689
1.221043,-7.963114,-0.737414
6.105214,-8.504205,0.306458
-2.925714,-21.298819,5.612009
3.347094,-13.302185,-2.020706
-4.170699,-15.801731,0.162806
1.173159,-14.092270999999998,-0.636858
1.11091,-8.954314,-8.887277000000001
0.0478839999999999,-8.571242,0.790087
2.494758,-5.674258,1.034295
11.894394,-11.429919,-8.049306
-9.323022,-15.844827,1.824382
-1.278504,-17.334020000000002,-14.245501
5.042189,-14.518439,-5.63595
-0.474052,-10.237606,-9.222465
2.873042,-10.261548,0.4979939999999999
-2.911349,-3.782838,1.13964
-3.624821,-8.939949,-1.508347
-6.631939,-14.073117000000002,-0.4548979999999999
6.373365,-11.741165,-8.226476
3.2896330000000003,-9.993398,-0.3830719999999999
-2.978387,-3.0502130000000003,1.273715
-4.34787,-9.92636,-1.642422
-4.256891,-17.166426,-2.054225
-12.277467,6.435614,2.853889
-7.8865,-16.82645,4.912902
4.13718,-23.673866,-10.807426
2.523489,-10.070012,0.158017
-0.143652,-3.572149,1.862689
1.221043,-7.963114,-0.737414
6.105214,-8.504205,0.306458
-2.925714,-21.298819,5.612009
3.347094,-13.302185,-2.020706
-4.170699,-15.801731,0.162806
1.173159,-14.092270999999998,-0.636858
1.11091,-8.954314,-8.887277000000001
0.0478839999999999,-8.571242,0.790087
2.494758,-5.674258,1.034295
11.894394,-11.429919,-8.049306
-9.323022,-15.844827,1.824382
-1.278504,-17.334020000000002,-14.245501
5.042189,-14.518439,-5.63595
-0.474052,-10.237606,-9.222465
2.873042,-10.261548,0.4979939999999999
-2.911349,-3.782838,1.13964
-3.624821,-8.939949,-1.508347
-6.631939,-14.073117000000002,-0.4548979999999999
-3.586514,-22.471977,-4.649539
1.192313,-11.774684,-0.545878
-2.978387,-3.0502130000000003,1.273715
-4.34787,-9.92636,-1.642422
-4.256891,-17.166426,-2.054225
-12.277467,6.435614,2.853889
-7.8865,-16.82645,4.912902
4.13718,-23.673866,-10.807426
2.523489,-10.070012,0.158017
-0.143652,-3.572149,1.862689
1.221043,-7.963114,-0.737414
6.105214,-8.504205,0.306458
-2.925714,-21.298819,5.612009
3.347094,-13.302185,-2.020706
-4.170699,-15.801731,0.162806
1.173159,-14.092270999999998,-0.636858
1.11091,-8.954314,-8.887277000000001
0.0478839999999999,-8.571242,0.790087
2.494758,-5.674258,1.034295
11.894394,-11.429919,-8.049306
-9.323022,-15.844827,1.824382
-1.278504,-17.334020000000002,-14.245501
5.042189,-14.518439,-5.63595
-0.474052,-10.237606,-9.222465
2.873042,-10.261548,0.4979939999999999
-2.911349,-3.782838,1.13964
-3.624821,-8.939949,-1.508347
-6.631939,-14.073117000000002,-0.4548979999999999
-3.586514,-22.471977,-4.649539
1.192313,-11.774684,-0.545878
-0.268151,-18.569427,-11.69807
4.017469999999999,-11.793838,-1.101333
-4.256891,-17.166426,-2.054225
-12.277467,6.435614,2.853889
-7.8865,-16.82645,4.912902
4.13718,-23.673866,-10.807426
2.523489,-10.070012,0.158017
-0.143652,-3.572149,1.862689
1.221043,-7.963114,-0.737414
6.105214,-8.504205,0.306458
-2.925714,-21.298819,5.612009
3.347094,-13.302185,-2.020706
-4.170699,-15.801731,0.162806
1.173159,-14.092270999999998,-0.636858
1.11091,-8.954314,-8.887277000000001
0.0478839999999999,-8.571242,0.790087
2.494758,-5.674258,1.034295
11.894394,-11.429919,-8.049306
-9.323022,-15.844827,1.824382
-1.278504,-17.334020000000002,-14.245501
5.042189,-14.518439,-5.63595
-0.474052,-10.237606,-9.222465
2.873042,-10.261548,0.4979939999999999
-2.911349,-3.782838,1.13964
-3.624821,-8.939949,-1.508347
-6.631939,-14.073117000000002,-0.4548979999999999
-3.586514,-22.471977,-4.649539
1.192313,-11.774684,-0.545878
-0.268151,-18.569427,-11.69807
4.017469999999999,-11.793838,-1.101333
-2.470816,-3.284845,1.972822
-5.875371,-8.283937,-1.632845
-7.8865,-16.82645,4.912902
4.13718,-23.673866,-10.807426
2.523489,-10.070012,0.158017
-0.143652,-3.572149,1.862689
1.221043,-7.963114,-0.737414
6.105214,-8.504205,0.306458
-2.925714,-21.298819,5.612009
3.347094,-13.302185,-2.020706
-4.170699,-15.801731,0.162806
1.173159,-14.092270999999998,-0.636858
1.11091,-8.954314,-8.887277000000001
0.0478839999999999,-8.571242,0.790087
2.494758,-5.674258,1.034295
11.894394,-11.429919,-8.049306
-9.323022,-15.844827,1.824382
-1.278504,-17.334020000000002,-14.245501
5.042189,-14.518439,-5.63595
-0.474052,-10.237606,-9.222465
2.873042,-10.261548,0.4979939999999999
-2.911349,-3.782838,1.13964
-3.624821,-8.939949,-1.508347
-6.631939,-14.073117000000002,-0.4548979999999999
-3.586514,-22.471977,-4.649539
1.192313,-11.774684,-0.545878
-0.268151,-18.569427,-11.69807
4.017469999999999,-11.793838,-1.101333
-2.470816,-3.284845,1.972822
-5.875371,-8.283937,-1.632845
-6.363788,-13.321339000000002,2.207454
-5.8274870000000005,-19.479225,-16.31409
2.523489,-10.070012,0.158017
-0.143652,-3.572149,1.862689
1.221043,-7.963114,-0.737414
6.105214,-8.504205,0.306458
-2.925714,-21.298819,5.612009
3.347094,-13.302185,-2.020706
-4.170699,-15.801731,0.162806
1.173159,-14.092270999999998,-0.636858
1.11091,-8.954314,-8.887277000000001
0.0478839999999999,-8.571242,0.790087
2.494758,-5.674258,1.034295
11.894394,-11.429919,-8.049306
-9.323022,-15.844827,1.824382
-1.278504,-17.334020000000002,-14.245501
5.042189,-14.518439,-5.63595
-0.474052,-10.237606,-9.222465
2.873042,-10.261548,0.4979939999999999
-2.911349,-3.782838,1.13964
-3.624821,-8.939949,-1.508347
-6.631939,-14.073117000000002,-0.4548979999999999
-3.586514,-22.471977,-4.649539
1.192313,-11.774684,-0.545878
-0.268151,-18.569427,-11.69807
4.017469999999999,-11.793838,-1.101333
-2.470816,-3.284845,1.972822
-5.875371,-8.283937,-1.632845
-6.363788,-13.321339000000002,2.207454
-5.8274870000000005,-19.479225,-16.31409
1.541866,-11.056423,0.842759
-2.394202,-4.654328,0.306458
1.221043,-7.963114,-0.737414
6.105214,-8.504205,0.306458
-2.925714,-21.298819,5.612009
3.347094,-13.302185,-2.020706
-4.170699,-15.801731,0.162806
1.173159,-14.092270999999998,-0.636858
1.11091,-8.954314,-8.887277000000001
0.0478839999999999,-8.571242,0.790087
2.494758,-5.674258,1.034295
11.894394,-11.429919,-8.049306
-9.323022,-15.844827,1.824382
-1.278504,-17.334020000000002,-14.245501
5.042189,-14.518439,-5.63595
-0.474052,-10.237606,-9.222465
2.873042,-10.261548,0.4979939999999999
-2.911349,-3.782838,1.13964
-3.624821,-8.939949,-1.508347
-6.631939,-14.073117000000002,-0.4548979999999999
-3.586514,-22.471977,-4.649539
1.192313,-11.774684,-0.545878
-0.268151,-18.569427,-11.69807
4.017469999999999,-11.793838,-1.101333
-2.470816,-3.284845,1.972822
-5.875371,-8.283937,-1.632845
-6.363788,-13.321339000000002,2.207454
-5.8274870000000005,-19.479225,-16.31409
1.541866,-11.056423,0.842759
-2.394202,-4.654328,0.306458
0.933739,-10.251971,-1.01993
-2.806004,-3.615245,0.407014
-2.925714,-21.298819,5.612009
3.347094,-13.302185,-2.020706
-4.170699,-15.801731,0.162806
1.173159,-14.092270999999998,-0.636858
1.11091,-8.954314,-8.887277000000001
0.0478839999999999,-8.571242,0.790087
2.494758,-5.674258,1.034295
11.894394,-11.429919,-8.049306
-9.323022,-15.844827,1.824382
-1.278504,-17.334020000000002,-14.245501
5.042189,-14.518439,-5.63595
-0.474052,-10.237606,-9.222465
2.873042,-10.261548,0.4979939999999999
-2.911349,-3.782838,1.13964
-3.624821,-8.939949,-1.508347
-6.631939,-14.073117000000002,-0.4548979999999999
-3.586514,-22.471977,-4.649539
1.192313,-11.774684,-0.545878
-0.268151,-18.569427,-11.69807
4.017469999999999,-11.793838,-1.101333
-2.470816,-3.284845,1.972822
-5.875371,-8.283937,-1.632845
-6.363788,-13.321339000000002,2.207454
-5.8274870000000005,-19.479225,-16.31409
1.541866,-11.056423,0.842759
-2.394202,-4.654328,0.306458
0.933739,-10.251971,-1.01993
-2.806004,-3.615245,0.407014
-2.964022,-8.288725999999999,-1.268927
-4.43885,-14.283808,-2.2505490000000004
-4.170699,-15.801731,0.162806
1.173159,-14.092270999999998,-0.636858
1.11091,-8.954314,-8.887277000000001
0.0478839999999999,-8.571242,0.790087
2.494758,-5.674258,1.034295
11.894394,-11.429919,-8.049306
-9.323022,-15.844827,1.824382
-1.278504,-17.334020000000002,-14.245501
5.042189,-14.518439,-5.63595
-0.474052,-10.237606,-9.222465
2.873042,-10.261548,0.4979939999999999
-2.911349,-3.782838,1.13964
-3.624821,-8.939949,-1.508347
-6.631939,-14.073117000000002,-0.4548979999999999
-3.586514,-22.471977,-4.649539
1.192313,-11.774684,-0.545878
-0.268151,-18.569427,-11.69807
4.017469999999999,-11.793838,-1.101333
-2.470816,-3.284845,1.972822
-5.875371,-8.283937,-1.632845
-6.363788,-13.321339000000002,2.207454
-5.8274870000000005,-19.479225,-16.31409
1.541866,-11.056423,0.842759
-2.394202,-4.654328,0.306458
0.933739,-10.251971,-1.01993
-2.806004,-3.615245,0.407014
-2.964022,-8.288725999999999,-1.268927
-4.43885,-14.283808,-2.2505490000000004
-3.763685,1.7525560000000002,18.86152
-1.331176,-12.516887,-0.761356
-2.331952,-7.671022,-0.35913
-4.395754,-11.573571,-2.03986
-9.993398,1.580173,-11.587936
-3.409343,-13.158532,-3.677494
-14.159308,-18.11453,-20.077776
-3.007117,-7.541735000000001,0.799663
-2.351106,-3.744531,2.513912
-1.517924,-8.513782,0.8523360000000001
1.278504,-8.872911,0.0430959999999999
-1.656788,-10.941502,0.8619129999999999
-3.969586,-13.354857,-3.083732
-1.613692,-9.672575,-5.133168
-0.991199,-9.667787,-1.177947
-2.097321,0.292093,2.767697
-5.655104,-6.488286,-0.933739
-7.345411,-12.717999,-1.838747
0.555455,-10.874464,23.582888
-9.155427,-11.654974,-1.388637
-6.660669,5.214572,-2.8155810000000003
-1.848324,-12.65575,-3.65834
-7.278372999999999,-14.686032999999998,-10.065224
-3.5960910000000004,-9.016563,-1.484405
-2.37026,-1.192312,3.055001
-5.473145,-6.517017,-0.713472
-5.061342,-11.808203,-2.5378540000000003
-2.743755,1.244985,-0.440533
-3.2321720000000003,-13.469779,-2.446874
-4.285621,8.073248,2.9257150000000003
-1.388637,-12.990938,-2.394202
-7.206547,-15.710752,-13.814544
1.11091,-8.954314,-8.887277000000001
0.0478839999999999,-8.571242,0.790087
2.494758,-5.674258,1.034295
11.894394,-11.429919,-8.049306
-9.323022,-15.844827,1.824382
-1.278504,-17.334020000000002,-14.245501
5.042189,-14.518439,-5.63595
-0.474052,-10.237606,-9.222465
2.873042,-10.261548,0.4979939999999999
-2.911349,-3.782838,1.13964
-3.624821,-8.939949,-1.508347
-6.631939,-14.073117000000002,-0.4548979999999999
-3.586514,-22.471977,-4.649539
1.192313,-11.774684,-0.545878
-0.268151,-18.569427,-11.69807
4.017469999999999,-11.793838,-1.101333
-2.470816,-3.284845,1.972822
-5.875371,-8.283937,-1.632845
-6.363788,-13.321339000000002,2.207454
-5.8274870000000005,-19.479225,-16.31409
1.541866,-11.056423,0.842759
-2.394202,-4.654328,0.306458
0.933739,-10.251971,-1.01993
-2.806004,-3.615245,0.407014
-2.964022,-8.288725999999999,-1.268927
-4.43885,-14.283808,-2.2505490000000004
-3.763685,1.7525560000000002,18.86152
-1.331176,-12.516887,-0.761356
-1.771709,-6.531382,-4.424484
-0.8236049999999999,-8.652645,-0.833182
2.494758,-5.674258,1.034295
11.894394,-11.429919,-8.049306
-9.323022,-15.844827,1.824382
-1.278504,-17.334020000000002,-14.245501
5.042189,-14.518439,-5.63595
-0.474052,-10.237606,-9.222465
2.873042,-10.261548,0.4979939999999999
-2.911349,-3.782838,1.13964
-3.624821,-8.939949,-1.508347
-6.631939,-14.073117000000002,-0.4548979999999999
-3.586514,-22.471977,-4.649539
1.192313,-11.774684,-0.545878
-0.268151,-18.569427,-11.69807
4.017469999999999,-11.793838,-1.101333
-2.470816,-3.284845,1.972822
-5.875371,-8.283937,-1.632845
-6.363788,-13.321339000000002,2.207454
-5.8274870000000005,-19.479225,-16.31409
1.541866,-11.056423,0.842759
-2.394202,-4.654328,0.306458
0.933739,-10.251971,-1.01993
-2.806004,-3.615245,0.407014
-2.964022,-8.288725999999999,-1.268927
-4.43885,-14.283808,-2.2505490000000004
-3.763685,1.7525560000000002,18.86152
-1.331176,-12.516887,-0.761356
-1.771709,-6.531382,-4.424484
-0.8236049999999999,-8.652645,-0.833182
-1.848324,-3.74932,0.756568
-2.715025,-8.51857,-1.383848
-9.323022,-15.844827,1.824382
-1.278504,-17.334020000000002,-14.245501
5.042189,-14.518439,-5.63595
-0.474052,-10.237606,-9.222465
2.873042,-10.261548,0.4979939999999999
-2.911349,-3.782838,1.13964
-3.624821,-8.939949,-1.508347
-6.631939,-14.073117000000002,-0.4548979999999999
-3.586514,-22.471977,-4.649539
1.192313,-11.774684,-0.545878
-0.268151,-18.569427,-11.69807
4.017469999999999,-11.793838,-1.101333
-2.470816,-3.284845,1.972822
-5.875371,-8.283937,-1.632845
-6.363788,-13.321339000000002,2.207454
-5.8274870000000005,-19.479225,-16.31409
1.541866,-11.056423,0.842759
-2.394202,-4.654328,0.306458
0.933739,-10.251971,-1.01993
-2.806004,-3.615245,0.407014
-2.964022,-8.288725999999999,-1.268927
-4.43885,-14.283808,-2.2505490000000004
-3.763685,1.7525560000000002,18.86152
-1.331176,-12.516887,-0.761356
-1.771709,-6.531382,-4.424484
-0.8236049999999999,-8.652645,-0.833182
-1.848324,-3.74932,0.756568
-2.715025,-8.51857,-1.383848
-4.903325,-12.315774,4.304775
4.266468,-19.756952,17.00362
5.042189,-14.518439,-5.63595
-0.474052,-10.237606,-9.222465
2.873042,-10.261548,0.4979939999999999
-2.911349,-3.782838,1.13964
-3.624821,-8.939949,-1.508347
-6.631939,-14.073117000000002,-0.4548979999999999
-3.586514,-22.471977,-4.649539
1.192313,-11.774684,-0.545878
-0.268151,-18.569427,-11.69807
4.017469999999999,-11.793838,-1.101333
-2.470816,-3.284845,1.972822
-5.875371,-8.283937,-1.632845
-6.363788,-13.321339000000002,2.207454
-5.8274870000000005,-19.479225,-16.31409
1.541866,-11.056423,0.842759
-2.394202,-4.654328,0.306458
0.933739,-10.251971,-1.01993
-2.806004,-3.615245,0.407014
-2.964022,-8.288725999999999,-1.268927
-4.43885,-14.283808,-2.2505490000000004
-3.763685,1.7525560000000002,18.86152
-1.331176,-12.516887,-0.761356
-1.771709,-6.531382,-4.424484
-0.8236049999999999,-8.652645,-0.833182
-1.848324,-3.74932,0.756568
-2.715025,-8.51857,-1.383848
-4.903325,-12.315774,4.304775
4.266468,-19.756952,17.00362
-2.614468,-10.424355,-2.121263
-1.417367,-9.859323,-6.4068830000000005
2.873042,-10.261548,0.4979939999999999
-2.911349,-3.782838,1.13964
-3.624821,-8.939949,-1.508347
-6.631939,-14.073117000000002,-0.4548979999999999
-3.586514,-22.471977,-4.649539
1.192313,-11.774684,-0.545878
-0.268151,-18.569427,-11.69807
4.017469999999999,-11.793838,-1.101333
-2.470816,-3.284845,1.972822
-5.875371,-8.283937,-1.632845
-6.363788,-13.321339000000002,2.207454
-5.8274870000000005,-19.479225,-16.31409
1.541866,-11.056423,0.842759
-2.394202,-4.654328,0.306458
0.933739,-10.251971,-1.01993
-2.806004,-3.615245,0.407014
-2.964022,-8.288725999999999,-1.268927
-4.43885,-14.283808,-2.2505490000000004
-3.763685,1.7525560000000002,18.86152
-1.331176,-12.516887,-0.761356
-1.771709,-6.531382,-4.424484
-0.8236049999999999,-8.652645,-0.833182
-1.848324,-3.74932,0.756568
-2.715025,-8.51857,-1.383848
-4.903325,-12.315774,4.304775
4.266468,-19.756952,17.00362
-2.614468,-10.424355,-2.121263
-1.417367,-9.859323,-6.4068830000000005
-3.758896,-7.661445,-0.751779
-0.339977,-4.309563,0.670377
-3.624821,-8.939949,-1.508347
-6.631939,-14.073117000000002,-0.4548979999999999
-3.586514,-22.471977,-4.649539
1.192313,-11.774684,-0.545878
-0.268151,-18.569427,-11.69807
4.017469999999999,-11.793838,-1.101333
-2.470816,-3.284845,1.972822
-5.875371,-8.283937,-1.632845
-6.363788,-13.321339000000002,2.207454
-5.8274870000000005,-19.479225,-16.31409
1.541866,-11.056423,0.842759
-2.394202,-4.654328,0.306458
0.933739,-10.251971,-1.01993
-2.806004,-3.615245,0.407014
-2.964022,-8.288725999999999,-1.268927
-4.43885,-14.283808,-2.2505490000000004
-3.763685,1.7525560000000002,18.86152
-1.331176,-12.516887,-0.761356
-1.771709,-6.531382,-4.424484
-0.8236049999999999,-8.652645,-0.833182
-1.848324,-3.74932,0.756568
-2.715025,-8.51857,-1.383848
-4.903325,-12.315774,4.304775
4.266468,-19.756952,17.00362
-2.614468,-10.424355,-2.121263
-1.417367,-9.859323,-6.4068830000000005
-3.758896,-7.661445,-0.751779
-0.339977,-4.309563,0.670377
-3.05979,-9.074024,-1.235408
-1.364695,-4.170699,2.164359
-3.586514,-22.471977,-4.649539
1.192313,-11.774684,-0.545878
-0.268151,-18.569427,-11.69807
4.017469999999999,-11.793838,-1.101333
-2.470816,-3.284845,1.972822
-5.875371,-8.283937,-1.632845
-6.363788,-13.321339000000002,2.207454
-5.8274870000000005,-19.479225,-16.31409
1.541866,-11.056423,0.842759
-2.394202,-4.654328,0.306458
0.933739,-10.251971,-1.01993
-2.806004,-3.615245,0.407014
-2.964022,-8.288725999999999,-1.268927
-4.43885,-14.283808,-2.2505490000000004
-3.763685,1.7525560000000002,18.86152
-1.331176,-12.516887,-0.761356
-1.771709,-6.531382,-4.424484
-0.8236049999999999,-8.652645,-0.833182
-1.848324,-3.74932,0.756568
-2.715025,-8.51857,-1.383848
-4.903325,-12.315774,4.304775
4.266468,-19.756952,17.00362
-2.614468,-10.424355,-2.121263
-1.417367,-9.859323,-6.4068830000000005
-3.758896,-7.661445,-0.751779
-0.339977,-4.309563,0.670377
-3.05979,-9.074024,-1.235408
-1.364695,-4.170699,2.164359
-5.33907,-6.981492,2.3558950000000003
-4.352658,-14.42746,-2.5809490000000004
-0.268151,-18.569427,-11.69807
4.017469999999999,-11.793838,-1.101333
-2.470816,-3.284845,1.972822
-5.875371,-8.283937,-1.632845
-6.363788,-13.321339000000002,2.207454
-5.8274870000000005,-19.479225,-16.31409
1.541866,-11.056423,0.842759
-2.394202,-4.654328,0.306458
0.933739,-10.251971,-1.01993
-2.806004,-3.615245,0.407014
-2.964022,-8.288725999999999,-1.268927
-4.43885,-14.283808,-2.2505490000000004
-3.763685,1.7525560000000002,18.86152
-1.331176,-12.516887,-0.761356
-1.771709,-6.531382,-4.424484
-0.8236049999999999,-8.652645,-0.833182
-1.848324,-3.74932,0.756568
-2.715025,-8.51857,-1.383848
-4.903325,-12.315774,4.304775
4.266468,-19.756952,17.00362
-2.614468,-10.424355,-2.121263
-1.417367,-9.859323,-6.4068830000000005
-3.758896,-7.661445,-0.751779
-0.339977,-4.309563,0.670377
-3.05979,-9.074024,-1.235408
-1.364695,-4.170699,2.164359
-5.33907,-6.981492,2.3558950000000003
-4.352658,-14.42746,-2.5809490000000004
-10.836157,-15.80652,-6.885724000000001
-3.811569,-15.246277,-3.438074
-2.470816,-3.284845,1.972822
-5.875371,-8.283937,-1.632845
-6.363788,-13.321339000000002,2.207454
-5.8274870000000005,-19.479225,-16.31409
1.541866,-11.056423,0.842759
-2.394202,-4.654328,0.306458
0.933739,-10.251971,-1.01993
-2.806004,-3.615245,0.407014
-2.964022,-8.288725999999999,-1.268927
-4.43885,-14.283808,-2.2505490000000004
-3.763685,1.7525560000000002,18.86152
-1.331176,-12.516887,-0.761356
-1.771709,-6.531382,-4.424484
-0.8236049999999999,-8.652645,-0.833182
-1.848324,-3.74932,0.756568
-2.715025,-8.51857,-1.383848
-4.903325,-12.315774,4.304775
4.266468,-19.756952,17.00362
-2.614468,-10.424355,-2.121263
-1.417367,-9.859323,-6.4068830000000005
-3.758896,-7.661445,-0.751779
-0.339977,-4.309563,0.670377
-3.05979,-9.074024,-1.235408
-1.364695,-4.170699,2.164359
-5.33907,-6.981492,2.3558950000000003
-4.352658,-14.42746,-2.5809490000000004
-10.836157,-15.80652,-6.885724000000001
-3.811569,-15.246277,-3.438074
-8.441956,-15.097836,-20.025103
-1.034295,-8.331821000000001,-1.063026
-6.363788,-13.321339000000002,2.207454
-5.8274870000000005,-19.479225,-16.31409
1.541866,-11.056423,0.842759
-2.394202,-4.654328,0.306458
0.933739,-10.251971,-1.01993
-2.806004,-3.615245,0.407014
-2.964022,-8.288725999999999,-1.268927
-4.43885,-14.283808,-2.2505490000000004
-3.763685,1.7525560000000002,18.86152
-1.331176,-12.516887,-0.761356
-1.771709,-6.531382,-4.424484
-0.8236049999999999,-8.652645,-0.833182
-1.848324,-3.74932,0.756568
-2.715025,-8.51857,-1.383848
-4.903325,-12.315774,4.304775
4.266468,-19.756952,17.00362
-2.614468,-10.424355,-2.121263
-1.417367,-9.859323,-6.4068830000000005
-3.758896,-7.661445,-0.751779
-0.339977,-4.309563,0.670377
-3.05979,-9.074024,-1.235408
-1.364695,-4.170699,2.164359
-5.33907,-6.981492,2.3558950000000003
-4.352658,-14.42746,-2.5809490000000004
-10.836157,-15.80652,-6.885724000000001
-3.811569,-15.246277,-3.438074
-8.441956,-15.097836,-20.025103
-1.034295,-8.331821000000001,-1.063026
-10.46745,-15.68681,-15.251065
-3.624821,-7.158663000000001,-0.02873
-9.993398,1.580173,-11.587936
-3.409343,-13.158532,-3.677494
-14.159308,-18.11453,-20.077776
-3.007117,-7.541735000000001,0.799663
-2.351106,-3.744531,2.513912
-1.517924,-8.513782,0.8523360000000001
1.278504,-8.872911,0.0430959999999999
-1.656788,-10.941502,0.8619129999999999
-3.969586,-13.354857,-3.083732
-1.613692,-9.672575,-5.133168
-0.991199,-9.667787,-1.177947
-2.097321,0.292093,2.767697
-5.655104,-6.488286,-0.933739
-7.345411,-12.717999,-1.838747
0.555455,-10.874464,23.582888
-9.155427,-11.654974,-1.388637
-6.660669,5.214572,-2.8155810000000003
-1.848324,-12.65575,-3.65834
-7.278372999999999,-14.686032999999998,-10.065224
-3.5960910000000004,-9.016563,-1.484405
-2.37026,-1.192312,3.055001
-5.473145,-6.517017,-0.713472
-5.061342,-11.808203,-2.5378540000000003
-2.743755,1.244985,-0.440533
-3.2321720000000003,-13.469779,-2.446874
-4.285621,8.073248,2.9257150000000003
-1.388637,-12.990938,-2.394202
-7.206547,-15.710752,-13.814544
-1.666364,-8.820239,-1.565808
-2.394202,-1.335964,2.48997
1.541866,-11.056423,0.842759
-2.394202,-4.654328,0.306458
0.933739,-10.251971,-1.01993
-2.806004,-3.615245,0.407014
-2.964022,-8.288725999999999,-1.268927
-4.43885,-14.283808,-2.2505490000000004
-3.763685,1.7525560000000002,18.86152
-1.331176,-12.516887,-0.761356
-1.771709,-6.531382,-4.424484
-0.8236049999999999,-8.652645,-0.833182
-1.848324,-3.74932,0.756568
-2.715025,-8.51857,-1.383848
-4.903325,-12.315774,4.304775
4.266468,-19.756952,17.00362
-2.614468,-10.424355,-2.121263
-1.417367,-9.859323,-6.4068830000000005
-3.758896,-7.661445,-0.751779
-0.339977,-4.309563,0.670377
-3.05979,-9.074024,-1.235408
-1.364695,-4.170699,2.164359
-5.33907,-6.981492,2.3558950000000003
-4.352658,-14.42746,-2.5809490000000004
-10.836157,-15.80652,-6.885724000000001
-3.811569,-15.246277,-3.438074
-8.441956,-15.097836,-20.025103
-1.034295,-8.331821000000001,-1.063026
-10.46745,-15.68681,-15.251065
-3.624821,-7.158663000000001,-0.02873
-2.331952,-3.2321720000000003,1.766921
-6.29675,-7.594407,1.302446
0.933739,-10.251971,-1.01993
-2.806004,-3.615245,0.407014
-2.964022,-8.288725999999999,-1.268927
-4.43885,-14.283808,-2.2505490000000004
-3.763685,1.7525560000000002,18.86152
-1.331176,-12.516887,-0.761356
-1.771709,-6.531382,-4.424484
-0.8236049999999999,-8.652645,-0.833182
-1.848324,-3.74932,0.756568
-2.715025,-8.51857,-1.383848
-4.903325,-12.315774,4.304775
4.266468,-19.756952,17.00362
-2.614468,-10.424355,-2.121263
-1.417367,-9.859323,-6.4068830000000005
-3.758896,-7.661445,-0.751779
-0.339977,-4.309563,0.670377
-3.05979,-9.074024,-1.235408
-1.364695,-4.170699,2.164359
-5.33907,-6.981492,2.3558950000000003
-4.352658,-14.42746,-2.5809490000000004
-10.836157,-15.80652,-6.885724000000001
-3.811569,-15.246277,-3.438074
-8.441956,-15.097836,-20.025103
-1.034295,-8.331821000000001,-1.063026
-10.46745,-15.68681,-15.251065
-3.624821,-7.158663000000001,-0.02873
-2.331952,-3.2321720000000003,1.766921
-6.29675,-7.594407,1.302446
-9.433155,-13.369223000000002,0.924162
10.457873,13.895947,27.241226
-2.964022,-8.288725999999999,-1.268927
-4.43885,-14.283808,-2.2505490000000004
-3.763685,1.7525560000000002,18.86152
-1.331176,-12.516887,-0.761356
-1.771709,-6.531382,-4.424484
-0.8236049999999999,-8.652645,-0.833182
-1.848324,-3.74932,0.756568
-2.715025,-8.51857,-1.383848
-4.903325,-12.315774,4.304775
4.266468,-19.756952,17.00362
-2.614468,-10.424355,-2.121263
-1.417367,-9.859323,-6.4068830000000005
-3.758896,-7.661445,-0.751779
-0.339977,-4.309563,0.670377
-3.05979,-9.074024,-1.235408
-1.364695,-4.170699,2.164359
-5.33907,-6.981492,2.3558950000000003
-4.352658,-14.42746,-2.5809490000000004
-10.836157,-15.80652,-6.885724000000001
-3.811569,-15.246277,-3.438074
-8.441956,-15.097836,-20.025103
-1.034295,-8.331821000000001,-1.063026
-10.46745,-15.68681,-15.251065
-3.624821,-7.158663000000001,-0.02873
-2.331952,-3.2321720000000003,1.766921
-6.29675,-7.594407,1.302446
-9.433155,-13.369223000000002,0.924162
10.457873,13.895947,27.241226
-2.916138,-12.330139,-1.173159
-4.802768,-9.979033,-9.634268
-3.763685,1.7525560000000002,18.86152
-1.331176,-12.516887,-0.761356
-1.771709,-6.531382,-4.424484
-0.8236049999999999,-8.652645,-0.833182
-1.848324,-3.74932,0.756568
-2.715025,-8.51857,-1.383848
-4.903325,-12.315774,4.304775
4.266468,-19.756952,17.00362
-2.614468,-10.424355,-2.121263
-1.417367,-9.859323,-6.4068830000000005
-3.758896,-7.661445,-0.751779
-0.339977,-4.309563,0.670377
-3.05979,-9.074024,-1.235408
-1.364695,-4.170699,2.164359
-5.33907,-6.981492,2.3558950000000003
-4.352658,-14.42746,-2.5809490000000004
-10.836157,-15.80652,-6.885724000000001
-3.811569,-15.246277,-3.438074
-8.441956,-15.097836,-20.025103
-1.034295,-8.331821000000001,-1.063026
-10.46745,-15.68681,-15.251065
-3.624821,-7.158663000000001,-0.02873
-2.331952,-3.2321720000000003,1.766921
-6.29675,-7.594407,1.302446
-9.433155,-13.369223000000002,0.924162
10.457873,13.895947,27.241226
-2.916138,-12.330139,-1.173159
-4.802768,-9.979033,-9.634268
-0.143652,-13.512875,-0.732626
-3.323152,-6.933608,-8.307879
-1.771709,-6.531382,-4.424484
-0.8236049999999999,-8.652645,-0.833182
-1.848324,-3.74932,0.756568
-2.715025,-8.51857,-1.383848
-4.903325,-12.315774,4.304775
4.266468,-19.756952,17.00362
-2.614468,-10.424355,-2.121263
-1.417367,-9.859323,-6.4068830000000005
-3.758896,-7.661445,-0.751779
-0.339977,-4.309563,0.670377
-3.05979,-9.074024,-1.235408
-1.364695,-4.170699,2.164359
-5.33907,-6.981492,2.3558950000000003
-4.352658,-14.42746,-2.5809490000000004
-10.836157,-15.80652,-6.885724000000001
-3.811569,-15.246277,-3.438074
-8.441956,-15.097836,-20.025103
-1.034295,-8.331821000000001,-1.063026
-10.46745,-15.68681,-15.251065
-3.624821,-7.158663000000001,-0.02873
-2.331952,-3.2321720000000003,1.766921
-6.29675,-7.594407,1.302446
-9.433155,-13.369223000000002,0.924162
10.457873,13.895947,27.241226
-2.916138,-12.330139,-1.173159
-4.802768,-9.979033,-9.634268
-0.143652,-13.512875,-0.732626
-3.323152,-6.933608,-8.307879
-0.924162,-8.820239,1.058237
1.292869,-8.207322999999999,1.192313
-1.848324,-3.74932,0.756568
-2.715025,-8.51857,-1.383848
-4.903325,-12.315774,4.304775
4.266468,-19.756952,17.00362
-2.614468,-10.424355,-2.121263
-1.417367,-9.859323,-6.4068830000000005
-3.758896,-7.661445,-0.751779
-0.339977,-4.309563,0.670377
-3.05979,-9.074024,-1.235408
-1.364695,-4.170699,2.164359
-5.33907,-6.981492,2.3558950000000003
-4.352658,-14.42746,-2.5809490000000004
-10.836157,-15.80652,-6.885724000000001
-3.811569,-15.246277,-3.438074
-8.441956,-15.097836,-20.025103
-1.034295,-8.331821000000001,-1.063026
-10.46745,-15.68681,-15.251065
-3.624821,-7.158663000000001,-0.02873
-2.331952,-3.2321720000000003,1.766921
-6.29675,-7.594407,1.302446
-9.433155,-13.369223000000002,0.924162
10.457873,13.895947,27.241226
-2.916138,-12.330139,-1.173159
-4.802768,-9.979033,-9.634268
-0.143652,-13.512875,-0.732626
-3.323152,-6.933608,-8.307879
-0.924162,-8.820239,1.058237
1.292869,-8.207322999999999,1.192313
2.063802,-15.040375,-2.8682540000000003
-8.724471000000001,-11.195287,0.593762
-4.903325,-12.315774,4.304775
4.266468,-19.756952,17.00362
-2.614468,-10.424355,-2.121263
-1.417367,-9.859323,-6.4068830000000005
-3.758896,-7.661445,-0.751779
-0.339977,-4.309563,0.670377
-3.05979,-9.074024,-1.235408
-1.364695,-4.170699,2.164359
-5.33907,-6.981492,2.3558950000000003
-4.352658,-14.42746,-2.5809490000000004
-10.836157,-15.80652,-6.885724000000001
-3.811569,-15.246277,-3.438074
-8.441956,-15.097836,-20.025103
-1.034295,-8.331821000000001,-1.063026
-10.46745,-15.68681,-15.251065
-3.624821,-7.158663000000001,-0.02873
-2.331952,-3.2321720000000003,1.766921
-6.29675,-7.594407,1.302446
-9.433155,-13.369223000000002,0.924162
10.457873,13.895947,27.241226
-2.916138,-12.330139,-1.173159
-4.802768,-9.979033,-9.634268
-0.143652,-13.512875,-0.732626
-3.323152,-6.933608,-8.307879
-0.924162,-8.820239,1.058237
1.292869,-8.207322999999999,1.192313
2.063802,-15.040375,-2.8682540000000003
-8.724471000000001,-11.195287,0.593762
-5.449203,-11.918336,-8.078036
0.42138,-12.196063,-3.825934
-2.614468,-10.424355,-2.121263
-1.417367,-9.859323,-6.4068830000000005
-3.758896,-7.661445,-0.751779
-0.339977,-4.309563,0.670377
-3.05979,-9.074024,-1.235408
-1.364695,-4.170699,2.164359
-5.33907,-6.981492,2.3558950000000003
-4.352658,-14.42746,-2.5809490000000004
-10.836157,-15.80652,-6.885724000000001
-3.811569,-15.246277,-3.438074
-8.441956,-15.097836,-20.025103
-1.034295,-8.331821000000001,-1.063026
-10.46745,-15.68681,-15.251065
-3.624821,-7.158663000000001,-0.02873
-2.331952,-3.2321720000000003,1.766921
-6.29675,-7.594407,1.302446
-9.433155,-13.369223000000002,0.924162
10.457873,13.895947,27.241226
-2.916138,-12.330139,-1.173159
-4.802768,-9.979033,-9.634268
-0.143652,-13.512875,-0.732626
-3.323152,-6.933608,-8.307879
-0.924162,-8.820239,1.058237
1.292869,-8.207322999999999,1.192313
2.063802,-15.040375,-2.8682540000000003
-8.724471000000001,-11.195287,0.593762
-5.449203,-11.918336,-8.078036
0.42138,-12.196063,-3.825934
0.588974,-5.707777,-5.78918
-1.244985,-11.295844,-1.675941
-3.758896,-7.661445,-0.751779
-0.339977,-4.309563,0.670377
-3.05979,-9.074024,-1.235408
-1.364695,-4.170699,2.164359
-5.33907,-6.981492,2.3558950000000003
-4.352658,-14.42746,-2.5809490000000004
-10.836157,-15.80652,-6.885724000000001
-3.811569,-15.246277,-3.438074
-8.441956,-15.097836,-20.025103
-1.034295,-8.331821000000001,-1.063026
-10.46745,-15.68681,-15.251065
-3.624821,-7.158663000000001,-0.02873
-2.331952,-3.2321720000000003,1.766921
-6.29675,-7.594407,1.302446
-9.433155,-13.369223000000002,0.924162
10.457873,13.895947,27.241226
-2.916138,-12.330139,-1.173159
-4.802768,-9.979033,-9.634268
-0.143652,-13.512875,-0.732626
-3.323152,-6.933608,-8.307879
-0.924162,-8.820239,1.058237
1.292869,-8.207322999999999,1.192313
2.063802,-15.040375,-2.8682540000000003
-8.724471000000001,-11.195287,0.593762
-5.449203,-11.918336,-8.078036
0.42138,-12.196063,-3.825934
0.588974,-5.707777,-5.78918
-1.244985,-11.295844,-1.675941
-3.466804,-2.293645,2.375048
-4.726154,-7.982267999999999,-1.47004
-3.05979,-9.074024,-1.235408
-1.364695,-4.170699,2.164359
-5.33907,-6.981492,2.3558950000000003
-4.352658,-14.42746,-2.5809490000000004
-10.836157,-15.80652,-6.885724000000001
-3.811569,-15.246277,-3.438074
-8.441956,-15.097836,-20.025103
-1.034295,-8.331821000000001,-1.063026
-10.46745,-15.68681,-15.251065
-3.624821,-7.158663000000001,-0.02873
-2.331952,-3.2321720000000003,1.766921
-6.29675,-7.594407,1.302446
-9.433155,-13.369223000000002,0.924162
10.457873,13.895947,27.241226
-2.916138,-12.330139,-1.173159
-4.802768,-9.979033,-9.634268
-0.143652,-13.512875,-0.732626
-3.323152,-6.933608,-8.307879
-0.924162,-8.820239,1.058237
1.292869,-8.207322999999999,1.192313
2.063802,-15.040375,-2.8682540000000003
-8.724471000000001,-11.195287,0.593762
-5.449203,-11.918336,-8.078036
0.42138,-12.196063,-3.825934
0.588974,-5.707777,-5.78918
-1.244985,-11.295844,-1.675941
-3.466804,-2.293645,2.375048
-4.726154,-7.982267999999999,-1.47004
-6.5792660000000005,-12.334928,-1.843535
-5.161899,-3.586514,-3.337517
-14.159308,-18.11453,-20.077776
-3.007117,-7.541735000000001,0.799663
-2.351106,-3.744531,2.513912
-1.517924,-8.513782,0.8523360000000001
1.278504,-8.872911,0.0430959999999999
-1.656788,-10.941502,0.8619129999999999
-3.969586,-13.354857,-3.083732
-1.613692,-9.672575,-5.133168
-0.991199,-9.667787,-1.177947
-2.097321,0.292093,2.767697
-5.655104,-6.488286,-0.933739
-7.345411,-12.717999,-1.838747
0.555455,-10.874464,23.582888
-9.155427,-11.654974,-1.388637
-6.660669,5.214572,-2.8155810000000003
-1.848324,-12.65575,-3.65834
-7.278372999999999,-14.686032999999998,-10.065224
-3.5960910000000004,-9.016563,-1.484405
-2.37026,-1.192312,3.055001
-5.473145,-6.517017,-0.713472
-5.061342,-11.808203,-2.5378540000000003
-2.743755,1.244985,-0.440533
-3.2321720000000003,-13.469779,-2.446874
-4.285621,8.073248,2.9257150000000003
-1.388637,-12.990938,-2.394202
-7.206547,-15.710752,-13.814544
-1.666364,-8.820239,-1.565808
-2.394202,-1.335964,2.48997
-4.151545,-8.657434,-1.383848
-5.45878,-11.913548,-2.451662
-5.33907,-6.981492,2.3558950000000003
-4.352658,-14.42746,-2.5809490000000004
-10.836157,-15.80652,-6.885724000000001
-3.811569,-15.246277,-3.438074
-8.441956,-15.097836,-20.025103
-1.034295,-8.331821000000001,-1.063026
-10.46745,-15.68681,-15.251065
-3.624821,-7.158663000000001,-0.02873
-2.331952,-3.2321720000000003,1.766921
-6.29675,-7.594407,1.302446
-9.433155,-13.369223000000002,0.924162
10.457873,13.895947,27.241226
-2.916138,-12.330139,-1.173159
-4.802768,-9.979033,-9.634268
-0.143652,-13.512875,-0.732626
-3.323152,-6.933608,-8.307879
-0.924162,-8.820239,1.058237
1.292869,-8.207322999999999,1.192313
2.063802,-15.040375,-2.8682540000000003
-8.724471000000001,-11.195287,0.593762
-5.449203,-11.918336,-8.078036
0.42138,-12.196063,-3.825934
0.588974,-5.707777,-5.78918
-1.244985,-11.295844,-1.675941
-3.466804,-2.293645,2.375048
-4.726154,-7.982267999999999,-1.47004
-6.5792660000000005,-12.334928,-1.843535
-5.161899,-3.586514,-3.337517
-3.337517,-13.177685999999998,-3.763685
-14.839262,-16.587029,-20.84871
-10.836157,-15.80652,-6.885724000000001
-3.811569,-15.246277,-3.438074
-8.441956,-15.097836,-20.025103
-1.034295,-8.331821000000001,-1.063026
-10.46745,-15.68681,-15.251065
-3.624821,-7.158663000000001,-0.02873
-2.331952,-3.2321720000000003,1.766921
-6.29675,-7.594407,1.302446
-9.433155,-13.369223000000002,0.924162
10.457873,13.895947,27.241226
-2.916138,-12.330139,-1.173159
-4.802768,-9.979033,-9.634268
-0.143652,-13.512875,-0.732626
-3.323152,-6.933608,-8.307879
-0.924162,-8.820239,1.058237
1.292869,-8.207322999999999,1.192313
2.063802,-15.040375,-2.8682540000000003
-8.724471000000001,-11.195287,0.593762
-5.449203,-11.918336,-8.078036
0.42138,-12.196063,-3.825934
0.588974,-5.707777,-5.78918
-1.244985,-11.295844,-1.675941
-3.466804,-2.293645,2.375048
-4.726154,-7.982267999999999,-1.47004
-6.5792660000000005,-12.334928,-1.843535
-5.161899,-3.586514,-3.337517
-3.337517,-13.177685999999998,-3.763685
-14.839262,-16.587029,-20.84871
-5.717354,-12.856863,-0.732626
-12.53604,-14.293385,-13.929465
-8.441956,-15.097836,-20.025103
-1.034295,-8.331821000000001,-1.063026
-10.46745,-15.68681,-15.251065
-3.624821,-7.158663000000001,-0.02873
-2.331952,-3.2321720000000003,1.766921
-6.29675,-7.594407,1.302446
-9.433155,-13.369223000000002,0.924162
10.457873,13.895947,27.241226
-2.916138,-12.330139,-1.173159
-4.802768,-9.979033,-9.634268
-0.143652,-13.512875,-0.732626
-3.323152,-6.933608,-8.307879
-0.924162,-8.820239,1.058237
1.292869,-8.207322999999999,1.192313
2.063802,-15.040375,-2.8682540000000003
-8.724471000000001,-11.195287,0.593762
-5.449203,-11.918336,-8.078036
0.42138,-12.196063,-3.825934
0.588974,-5.707777,-5.78918
-1.244985,-11.295844,-1.675941
-3.466804,-2.293645,2.375048
-4.726154,-7.982267999999999,-1.47004
-6.5792660000000005,-12.334928,-1.843535
-5.161899,-3.586514,-3.337517
-3.337517,-13.177685999999998,-3.763685
-14.839262,-16.587029,-20.84871
-5.717354,-12.856863,-0.732626
-12.53604,-14.293385,-13.929465
-4.750096,-7.278372999999999,-1.01993
-3.141193,-1.929727,2.8491
-10.46745,-15.68681,-15.251065
-3.624821,-7.158663000000001,-0.02873
-2.331952,-3.2321720000000003,1.766921
-6.29675,-7.594407,1.302446
-9.433155,-13.369223000000002,0.924162
10.457873,13.895947,27.241226
-2.916138,-12.330139,-1.173159
-4.802768,-9.979033,-9.634268
-0.143652,-13.512875,-0.732626
-3.323152,-6.933608,-8.307879
-0.924162,-8.820239,1.058237
1.292869,-8.207322999999999,1.192313
2.063802,-15.040375,-2.8682540000000003
-8.724471000000001,-11.195287,0.593762
-5.449203,-11.918336,-8.078036
0.42138,-12.196063,-3.825934
0.588974,-5.707777,-5.78918
-1.244985,-11.295844,-1.675941
-3.466804,-2.293645,2.375048
-4.726154,-7.982267999999999,-1.47004
-6.5792660000000005,-12.334928,-1.843535
-5.161899,-3.586514,-3.337517
-3.337517,-13.177685999999998,-3.763685
-14.839262,-16.587029,-20.84871
-5.717354,-12.856863,-0.732626
-12.53604,-14.293385,-13.929465
-4.750096,-7.278372999999999,-1.01993
-3.141193,-1.929727,2.8491
-5.736507,-7.862558,2.092532
-10.807426,-12.899959,3.835511
-2.331952,-3.2321720000000003,1.766921
-6.29675,-7.594407,1.302446
-9.433155,-13.369223000000002,0.924162
10.457873,13.895947,27.241226
-2.916138,-12.330139,-1.173159
-4.802768,-9.979033,-9.634268
-0.143652,-13.512875,-0.732626
-3.323152,-6.933608,-8.307879
-0.924162,-8.820239,1.058237
1.292869,-8.207322999999999,1.192313
2.063802,-15.040375,-2.8682540000000003
-8.724471000000001,-11.195287,0.593762
-5.449203,-11.918336,-8.078036
0.42138,-12.196063,-3.825934
0.588974,-5.707777,-5.78918
-1.244985,-11.295844,-1.675941
-3.466804,-2.293645,2.375048
-4.726154,-7.982267999999999,-1.47004
-6.5792660000000005,-12.334928,-1.843535
-5.161899,-3.586514,-3.337517
-3.337517,-13.177685999999998,-3.763685
-14.839262,-16.587029,-20.84871
-5.717354,-12.856863,-0.732626
-12.53604,-14.293385,-13.929465
-4.750096,-7.278372999999999,-1.01993
-3.141193,-1.929727,2.8491
-5.736507,-7.862558,2.092532
-10.807426,-12.899959,3.835511
-13.848063,-21.739351,-12.674904
-1.905785,-11.477803,-1.201889
-9.433155,-13.369223000000002,0.924162
10.457873,13.895947,27.241226
-2.916138,-12.330139,-1.173159
-4.802768,-9.979033,-9.634268
-0.143652,-13.512875,-0.732626
-3.323152,-6.933608,-8.307879
-0.924162,-8.820239,1.058237
1.292869,-8.207322999999999,1.192313
2.063802,-15.040375,-2.8682540000000003
-8.724471000000001,-11.195287,0.593762
-5.449203,-11.918336,-8.078036
0.42138,-12.196063,-3.825934
0.588974,-5.707777,-5.78918
-1.244985,-11.295844,-1.675941
-3.466804,-2.293645,2.375048
-4.726154,-7.982267999999999,-1.47004
-6.5792660000000005,-12.334928,-1.843535
-5.161899,-3.586514,-3.337517
-3.337517,-13.177685999999998,-3.763685
-14.839262,-16.587029,-20.84871
-5.717354,-12.856863,-0.732626
-12.53604,-14.293385,-13.929465
-4.750096,-7.278372999999999,-1.01993
-3.141193,-1.929727,2.8491
-5.736507,-7.862558,2.092532
-10.807426,-12.899959,3.835511
-13.848063,-21.739351,-12.674904
-1.905785,-11.477803,-1.201889
-10.979809,-20.06341,-10.429143
-1.441309,-11.803414,-1.47004
-2.916138,-12.330139,-1.173159
-4.802768,-9.979033,-9.634268
-0.143652,-13.512875,-0.732626
-3.323152,-6.933608,-8.307879
-0.924162,-8.820239,1.058237
1.292869,-8.207322999999999,1.192313
2.063802,-15.040375,-2.8682540000000003
-8.724471000000001,-11.195287,0.593762
-5.449203,-11.918336,-8.078036
0.42138,-12.196063,-3.825934
0.588974,-5.707777,-5.78918
-1.244985,-11.295844,-1.675941
-3.466804,-2.293645,2.375048
-4.726154,-7.982267999999999,-1.47004
-6.5792660000000005,-12.334928,-1.843535
-5.161899,-3.586514,-3.337517
-3.337517,-13.177685999999998,-3.763685
-14.839262,-16.587029,-20.84871
-5.717354,-12.856863,-0.732626
-12.53604,-14.293385,-13.929465
-4.750096,-7.278372999999999,-1.01993
-3.141193,-1.929727,2.8491
-5.736507,-7.862558,2.092532
-10.807426,-12.899959,3.835511
-13.848063,-21.739351,-12.674904
-1.905785,-11.477803,-1.201889
-10.979809,-20.06341,-10.429143
-1.441309,-11.803414,-1.47004
-3.141193,-2.772485,0.8523360000000001
-0.751779,-8.269572,-0.574608
-0.143652,-13.512875,-0.732626
-3.323152,-6.933608,-8.307879
-0.924162,-8.820239,1.058237
1.292869,-8.207322999999999,1.192313
2.063802,-15.040375,-2.8682540000000003
-8.724471000000001,-11.195287,0.593762
-5.449203,-11.918336,-8.078036
0.42138,-12.196063,-3.825934
0.588974,-5.707777,-5.78918
-1.244985,-11.295844,-1.675941
-3.466804,-2.293645,2.375048
-4.726154,-7.982267999999999,-1.47004
-6.5792660000000005,-12.334928,-1.843535
-5.161899,-3.586514,-3.337517
-3.337517,-13.177685999999998,-3.763685
-14.839262,-16.587029,-20.84871
-5.717354,-12.856863,-0.732626
-12.53604,-14.293385,-13.929465
-4.750096,-7.278372999999999,-1.01993
-3.141193,-1.929727,2.8491
-5.736507,-7.862558,2.092532
-10.807426,-12.899959,3.835511
-13.848063,-21.739351,-12.674904
-1.905785,-11.477803,-1.201889
-10.979809,-20.06341,-10.429143
-1.441309,-11.803414,-1.47004
-3.141193,-2.772485,0.8523360000000001
-0.751779,-8.269572,-0.574608
0.790087,-10.922348,-0.68953
-2.078167,-17.046717,-3.371036
-0.924162,-8.820239,1.058237
1.292869,-8.207322999999999,1.192313
2.063802,-15.040375,-2.8682540000000003
-8.724471000000001,-11.195287,0.593762
-5.449203,-11.918336,-8.078036
0.42138,-12.196063,-3.825934
0.588974,-5.707777,-5.78918
-1.244985,-11.295844,-1.675941
-3.466804,-2.293645,2.375048
-4.726154,-7.982267999999999,-1.47004
-6.5792660000000005,-12.334928,-1.843535
-5.161899,-3.586514,-3.337517
-3.337517,-13.177685999999998,-3.763685
-14.839262,-16.587029,-20.84871
-5.717354,-12.856863,-0.732626
-12.53604,-14.293385,-13.929465
-4.750096,-7.278372999999999,-1.01993
-3.141193,-1.929727,2.8491
-5.736507,-7.862558,2.092532
-10.807426,-12.899959,3.835511
-13.848063,-21.739351,-12.674904
-1.905785,-11.477803,-1.201889
-10.979809,-20.06341,-10.429143
-1.441309,-11.803414,-1.47004
-3.141193,-2.772485,0.8523360000000001
-0.751779,-8.269572,-0.574608
0.790087,-10.922348,-0.68953
-2.078167,-17.046717,-3.371036
-0.2489969999999999,-14.848839000000002,-4.151545
-2.020706,-8.063671000000001,-5.702988
2.063802,-15.040375,-2.8682540000000003
-8.724471000000001,-11.195287,0.593762
-5.449203,-11.918336,-8.078036
0.42138,-12.196063,-3.825934
0.588974,-5.707777,-5.78918
-1.244985,-11.295844,-1.675941
-3.466804,-2.293645,2.375048
-4.726154,-7.982267999999999,-1.47004
-6.5792660000000005,-12.334928,-1.843535
-5.161899,-3.586514,-3.337517
-3.337517,-13.177685999999998,-3.763685
-14.839262,-16.587029,-20.84871
-5.717354,-12.856863,-0.732626
-12.53604,-14.293385,-13.929465
-4.750096,-7.278372999999999,-1.01993
-3.141193,-1.929727,2.8491
-5.736507,-7.862558,2.092532
-10.807426,-12.899959,3.835511
-13.848063,-21.739351,-12.674904
-1.905785,-11.477803,-1.201889
-10.979809,-20.06341,-10.429143
-1.441309,-11.803414,-1.47004
-3.141193,-2.772485,0.8523360000000001
-0.751779,-8.269572,-0.574608
0.790087,-10.922348,-0.68953
-2.078167,-17.046717,-3.371036
-0.2489969999999999,-14.848839000000002,-4.151545
-2.020706,-8.063671000000001,-5.702988
-2.193089,-14.235924,-3.490746
-6.411672,-13.431472,-14.628572
-2.351106,-3.744531,2.513912
-1.517924,-8.513782,0.8523360000000001
1.278504,-8.872911,0.0430959999999999
-1.656788,-10.941502,0.8619129999999999
-3.969586,-13.354857,-3.083732
-1.613692,-9.672575,-5.133168
-0.991199,-9.667787,-1.177947
-2.097321,0.292093,2.767697
-5.655104,-6.488286,-0.933739
-7.345411,-12.717999,-1.838747
0.555455,-10.874464,23.582888
-9.155427,-11.654974,-1.388637
-6.660669,5.214572,-2.8155810000000003
-1.848324,-12.65575,-3.65834
-7.278372999999999,-14.686032999999998,-10.065224
-3.5960910000000004,-9.016563,-1.484405
-2.37026,-1.192312,3.055001
-5.473145,-6.517017,-0.713472
-5.061342,-11.808203,-2.5378540000000003
-2.743755,1.244985,-0.440533
-3.2321720000000003,-13.469779,-2.446874
-4.285621,8.073248,2.9257150000000003
-1.388637,-12.990938,-2.394202
-7.206547,-15.710752,-13.814544
-1.666364,-8.820239,-1.565808
-2.394202,-1.335964,2.48997
-4.151545,-8.657434,-1.383848
-5.45878,-11.913548,-2.451662
-7.120356,6.713342,3.098097
-4.19943,-13.292608,-3.888183
-5.449203,-11.918336,-8.078036
0.42138,-12.196063,-3.825934
0.588974,-5.707777,-5.78918
-1.244985,-11.295844,-1.675941
-3.466804,-2.293645,2.375048
-4.726154,-7.982267999999999,-1.47004
-6.5792660000000005,-12.334928,-1.843535
-5.161899,-3.586514,-3.337517
-3.337517,-13.177685999999998,-3.763685
-14.839262,-16.587029,-20.84871
-5.717354,-12.856863,-0.732626
-12.53604,-14.293385,-13.929465
-4.750096,-7.278372999999999,-1.01993
-3.141193,-1.929727,2.8491
-5.736507,-7.862558,2.092532
-10.807426,-12.899959,3.835511
-13.848063,-21.739351,-12.674904
-1.905785,-11.477803,-1.201889
-10.979809,-20.06341,-10.429143
-1.441309,-11.803414,-1.47004
-3.141193,-2.772485,0.8523360000000001
-0.751779,-8.269572,-0.574608
0.790087,-10.922348,-0.68953
-2.078167,-17.046717,-3.371036
-0.2489969999999999,-14.848839000000002,-4.151545
-2.020706,-8.063671000000001,-5.702988
-2.193089,-14.235924,-3.490746
-6.411672,-13.431472,-14.628572
1.671153,-10.91756,-2.724601
-2.762909,-2.724601,2.432509
0.588974,-5.707777,-5.78918
-1.244985,-11.295844,-1.675941
-3.466804,-2.293645,2.375048
-4.726154,-7.982267999999999,-1.47004
-6.5792660000000005,-12.334928,-1.843535
-5.161899,-3.586514,-3.337517
-3.337517,-13.177685999999998,-3.763685
-14.839262,-16.587029,-20.84871
-5.717354,-12.856863,-0.732626
-12.53604,-14.293385,-13.929465
-4.750096,-7.278372999999999,-1.01993
-3.141193,-1.929727,2.8491
-5.736507,-7.862558,2.092532
-10.807426,-12.899959,3.835511
-13.848063,-21.739351,-12.674904
-1.905785,-11.477803,-1.201889
-10.979809,-20.06341,-10.429143
-1.441309,-11.803414,-1.47004
-3.141193,-2.772485,0.8523360000000001
-0.751779,-8.269572,-0.574608
0.790087,-10.922348,-0.68953
-2.078167,-17.046717,-3.371036
-0.2489969999999999,-14.848839000000002,-4.151545
-2.020706,-8.063671000000001,-5.702988
-2.193089,-14.235924,-3.490746
-6.411672,-13.431472,-14.628572
1.671153,-10.91756,-2.724601
-2.762909,-2.724601,2.432509
-8.101977999999999,-7.058106,-2.145205
-8.777142999999999,-13.062764,-1.939303
-3.466804,-2.293645,2.375048
-4.726154,-7.982267999999999,-1.47004
-6.5792660000000005,-12.334928,-1.843535
-5.161899,-3.586514,-3.337517
-3.337517,-13.177685999999998,-3.763685
-14.839262,-16.587029,-20.84871
-5.717354,-12.856863,-0.732626
-12.53604,-14.293385,-13.929465
-4.750096,-7.278372999999999,-1.01993
-3.141193,-1.929727,2.8491
-5.736507,-7.862558,2.092532
-10.807426,-12.899959,3.835511
-13.848063,-21.739351,-12.674904
-1.905785,-11.477803,-1.201889
-10.979809,-20.06341,-10.429143
-1.441309,-11.803414,-1.47004
-3.141193,-2.772485,0.8523360000000001
-0.751779,-8.269572,-0.574608
0.790087,-10.922348,-0.68953
-2.078167,-17.046717,-3.371036
-0.2489969999999999,-14.848839000000002,-4.151545
-2.020706,-8.063671000000001,-5.702988
-2.193089,-14.235924,-3.490746
-6.411672,-13.431472,-14.628572
1.671153,-10.91756,-2.724601
-2.762909,-2.724601,2.432509
-8.101977999999999,-7.058106,-2.145205
-8.777142999999999,-13.062764,-1.939303
3.2896330000000003,11.439496,11.674128
-1.4987700000000002,-12.215217,-0.234632
-6.5792660000000005,-12.334928,-1.843535
-5.161899,-3.586514,-3.337517
-3.337517,-13.177685999999998,-3.763685
-14.839262,-16.587029,-20.84871
-5.717354,-12.856863,-0.732626
-12.53604,-14.293385,-13.929465
-4.750096,-7.278372999999999,-1.01993
-3.141193,-1.929727,2.8491
-5.736507,-7.862558,2.092532
-10.807426,-12.899959,3.835511
-13.848063,-21.739351,-12.674904
-1.905785,-11.477803,-1.201889
-10.979809,-20.06341,-10.429143
-1.441309,-11.803414,-1.47004
-3.141193,-2.772485,0.8523360000000001
-0.751779,-8.269572,-0.574608
0.790087,-10.922348,-0.68953
-2.078167,-17.046717,-3.371036
-0.2489969999999999,-14.848839000000002,-4.151545
-2.020706,-8.063671000000001,-5.702988
-2.193089,-14.235924,-3.490746
-6.411672,-13.431472,-14.628572
1.671153,-10.91756,-2.724601
-2.762909,-2.724601,2.432509
-8.101977999999999,-7.058106,-2.145205
-8.777142999999999,-13.062764,-1.939303
3.2896330000000003,11.439496,11.674128
-1.4987700000000002,-12.215217,-0.234632
-3.505111,-5.995081,-5.928043
-1.16837,-11.444284,0.067038
-3.337517,-13.177685999999998,-3.763685
-14.839262,-16.587029,-20.84871
-5.717354,-12.856863,-0.732626
-12.53604,-14.293385,-13.929465
-4.750096,-7.278372999999999,-1.01993
-3.141193,-1.929727,2.8491
-5.736507,-7.862558,2.092532
-10.807426,-12.899959,3.835511
-13.848063,-21.739351,-12.674904
-1.905785,-11.477803,-1.201889
-10.979809,-20.06341,-10.429143
-1.441309,-11.803414,-1.47004
-3.141193,-2.772485,0.8523360000000001
-0.751779,-8.269572,-0.574608
0.790087,-10.922348,-0.68953
-2.078167,-17.046717,-3.371036
-0.2489969999999999,-14.848839000000002,-4.151545
-2.020706,-8.063671000000001,-5.702988
-2.193089,-14.235924,-3.490746
-6.411672,-13.431472,-14.628572
1.671153,-10.91756,-2.724601
-2.762909,-2.724601,2.432509
-8.101977999999999,-7.058106,-2.145205
-8.777142999999999,-13.062764,-1.939303
3.2896330000000003,11.439496,11.674128
-1.4987700000000002,-12.215217,-0.234632
-3.505111,-5.995081,-5.928043
-1.16837,-11.444284,0.067038
-2.221819,-2.561796,1.388637
-1.848324,-7.843405000000001,-1.881842
-5.717354,-12.856863,-0.732626
-12.53604,-14.293385,-13.929465
-4.750096,-7.278372999999999,-1.01993
-3.141193,-1.929727,2.8491
-5.736507,-7.862558,2.092532
-10.807426,-12.899959,3.835511
-13.848063,-21.739351,-12.674904
-1.905785,-11.477803,-1.201889
-10.979809,-20.06341,-10.429143
-1.441309,-11.803414,-1.47004
-3.141193,-2.772485,0.8523360000000001
-0.751779,-8.269572,-0.574608
0.790087,-10.922348,-0.68953
-2.078167,-17.046717,-3.371036
-0.2489969999999999,-14.848839000000002,-4.151545
-2.020706,-8.063671000000001,-5.702988
-2.193089,-14.235924,-3.490746
-6.411672,-13.431472,-14.628572
1.671153,-10.91756,-2.724601
-2.762909,-2.724601,2.432509
-8.101977999999999,-7.058106,-2.145205
-8.777142999999999,-13.062764,-1.939303
3.2896330000000003,11.439496,11.674128
-1.4987700000000002,-12.215217,-0.234632
-3.505111,-5.995081,-5.928043
-1.16837,-11.444284,0.067038
-2.221819,-2.561796,1.388637
-1.848324,-7.843405000000001,-1.881842
2.087744,-7.522581,-0.009577
-0.8044520000000001,-9.749189,2.662352
-4.750096,-7.278372999999999,-1.01993
-3.141193,-1.929727,2.8491
-5.736507,-7.862558,2.092532
-10.807426,-12.899959,3.835511
-13.848063,-21.739351,-12.674904
-1.905785,-11.477803,-1.201889
-10.979809,-20.06341,-10.429143
-1.441309,-11.803414,-1.47004
-3.141193,-2.772485,0.8523360000000001
-0.751779,-8.269572,-0.574608
0.790087,-10.922348,-0.68953
-2.078167,-17.046717,-3.371036
-0.2489969999999999,-14.848839000000002,-4.151545
-2.020706,-8.063671000000001,-5.702988
-2.193089,-14.235924,-3.490746
-6.411672,-13.431472,-14.628572
1.671153,-10.91756,-2.724601
-2.762909,-2.724601,2.432509
-8.101977999999999,-7.058106,-2.145205
-8.777142999999999,-13.062764,-1.939303
3.2896330000000003,11.439496,11.674128
-1.4987700000000002,-12.215217,-0.234632
-3.505111,-5.995081,-5.928043
-1.16837,-11.444284,0.067038
-2.221819,-2.561796,1.388637
-1.848324,-7.843405000000001,-1.881842
2.087744,-7.522581,-0.009577
-0.8044520000000001,-9.749189,2.662352
-15.155296,-15.844827,3.4811690000000004
-17.348385,-22.869415,-19.531897
-5.736507,-7.862558,2.092532
-10.807426,-12.899959,3.835511
-13.848063,-21.739351,-12.674904
-1.905785,-11.477803,-1.201889
-10.979809,-20.06341,-10.429143
-1.441309,-11.803414,-1.47004
-3.141193,-2.772485,0.8523360000000001
-0.751779,-8.269572,-0.574608
0.790087,-10.922348,-0.68953
-2.078167,-17.046717,-3.371036
-0.2489969999999999,-14.848839000000002,-4.151545
-2.020706,-8.063671000000001,-5.702988
-2.193089,-14.235924,-3.490746
-6.411672,-13.431472,-14.628572
1.671153,-10.91756,-2.724601
-2.762909,-2.724601,2.432509
-8.101977999999999,-7.058106,-2.145205
-8.777142999999999,-13.062764,-1.939303
3.2896330000000003,11.439496,11.674128
-1.4987700000000002,-12.215217,-0.234632
-3.505111,-5.995081,-5.928043
-1.16837,-11.444284,0.067038
-2.221819,-2.561796,1.388637
-1.848324,-7.843405000000001,-1.881842
2.087744,-7.522581,-0.009577
-0.8044520000000001,-9.749189,2.662352
-15.155296,-15.844827,3.4811690000000004
-17.348385,-22.869415,-19.531897
0.493206,-14.039598000000002,-2.901772
-6.517017,7.417236999999999,6.6941880000000005
-13.848063,-21.739351,-12.674904
-1.905785,-11.477803,-1.201889
-10.979809,-20.06341,-10.429143
-1.441309,-11.803414,-1.47004
-3.141193,-2.772485,0.8523360000000001
-0.751779,-8.269572,-0.574608
0.790087,-10.922348,-0.68953
-2.078167,-17.046717,-3.371036
-0.2489969999999999,-14.848839000000002,-4.151545
-2.020706,-8.063671000000001,-5.702988
-2.193089,-14.235924,-3.490746
-6.411672,-13.431472,-14.628572
1.671153,-10.91756,-2.724601
-2.762909,-2.724601,2.432509
-8.101977999999999,-7.058106,-2.145205
-8.777142999999999,-13.062764,-1.939303
3.2896330000000003,11.439496,11.674128
-1.4987700000000002,-12.215217,-0.234632
-3.505111,-5.995081,-5.928043
-1.16837,-11.444284,0.067038
-2.221819,-2.561796,1.388637
-1.848324,-7.843405000000001,-1.881842
2.087744,-7.522581,-0.009577
-0.8044520000000001,-9.749189,2.662352
-15.155296,-15.844827,3.4811690000000004
-17.348385,-22.869415,-19.531897
0.493206,-14.039598000000002,-2.901772
-6.517017,7.417236999999999,6.6941880000000005
-2.671929,-13.718776,-1.479617
-10.711658,-13.397953,-10.970232
-10.979809,-20.06341,-10.429143
-1.441309,-11.803414,-1.47004
-3.141193,-2.772485,0.8523360000000001
-0.751779,-8.269572,-0.574608
0.790087,-10.922348,-0.68953
-2.078167,-17.046717,-3.371036
-0.2489969999999999,-14.848839000000002,-4.151545
-2.020706,-8.063671000000001,-5.702988
-2.193089,-14.235924,-3.490746
-6.411672,-13.431472,-14.628572
1.671153,-10.91756,-2.724601
-2.762909,-2.724601,2.432509
-8.101977999999999,-7.058106,-2.145205
-8.777142999999999,-13.062764,-1.939303
3.2896330000000003,11.439496,11.674128
-1.4987700000000002,-12.215217,-0.234632
-3.505111,-5.995081,-5.928043
-1.16837,-11.444284,0.067038
-2.221819,-2.561796,1.388637
-1.848324,-7.843405000000001,-1.881842
2.087744,-7.522581,-0.009577
-0.8044520000000001,-9.749189,2.662352
-15.155296,-15.844827,3.4811690000000004
-17.348385,-22.869415,-19.531897
0.493206,-14.039598000000002,-2.901772
-6.517017,7.417236999999999,6.6941880000000005
-2.671929,-13.718776,-1.479617
-10.711658,-13.397953,-10.970232
-2.710236,-7.211335000000001,0.8475469999999999
-1.321599,-4.434061,2.087744
1.278504,-8.872911,0.0430959999999999
-1.656788,-10.941502,0.8619129999999999
-3.969586,-13.354857,-3.083732
-1.613692,-9.672575,-5.133168
-0.991199,-9.667787,-1.177947
-2.097321,0.292093,2.767697
-5.655104,-6.488286,-0.933739
-7.345411,-12.717999,-1.838747
0.555455,-10.874464,23.582888
-9.155427,-11.654974,-1.388637
-6.660669,5.214572,-2.8155810000000003
-1.848324,-12.65575,-3.65834
-7.278372999999999,-14.686032999999998,-10.065224
-3.5960910000000004,-9.016563,-1.484405
-2.37026,-1.192312,3.055001
-5.473145,-6.517017,-0.713472
-5.061342,-11.808203,-2.5378540000000003
-2.743755,1.244985,-0.440533
-3.2321720000000003,-13.469779,-2.446874
-4.285621,8.073248,2.9257150000000003
-1.388637,-12.990938,-2.394202
-7.206547,-15.710752,-13.814544
-1.666364,-8.820239,-1.565808
-2.394202,-1.335964,2.48997
-4.151545,-8.657434,-1.383848
-5.45878,-11.913548,-2.451662
-7.120356,6.713342,3.098097
-4.19943,-13.292608,-3.888183
-3.691859,5.530606,0.565032
-4.094085,-11.932701,-1.915361
-3.141193,-2.772485,0.8523360000000001
-0.751779,-8.269572,-0.574608
0.790087,-10.922348,-0.68953
-2.078167,-17.046717,-3.371036
-0.2489969999999999,-14.848839000000002,-4.151545
-2.020706,-8.063671000000001,-5.702988
-2.193089,-14.235924,-3.490746
-6.411672,-13.431472,-14.628572
1.671153,-10.91756,-2.724601
-2.762909,-2.724601,2.432509
-8.101977999999999,-7.058106,-2.145205
-8.777142999999999,-13.062764,-1.939303
3.2896330000000003,11.439496,11.674128
-1.4987700000000002,-12.215217,-0.234632
-3.505111,-5.995081,-5.928043
-1.16837,-11.444284,0.067038
-2.221819,-2.561796,1.388637
-1.848324,-7.843405000000001,-1.881842
2.087744,-7.522581,-0.009577
-0.8044520000000001,-9.749189,2.662352
-15.155296,-15.844827,3.4811690000000004
-17.348385,-22.869415,-19.531897
0.493206,-14.039598000000002,-2.901772
-6.517017,7.417236999999999,6.6941880000000005
-2.671929,-13.718776,-1.479617
-10.711658,-13.397953,-10.970232
-2.710236,-7.211335000000001,0.8475469999999999
-1.321599,-4.434061,2.087744
-6.497863,-7.019799000000001,2.202666
-5.688623000000001,-12.29662,-1.067814
0.790087,-10.922348,-0.68953
-2.078167,-17.046717,-3.371036
-0.2489969999999999,-14.848839000000002,-4.151545
-2.020706,-8.063671000000001,-5.702988
-2.193089,-14.235924,-3.490746
-6.411672,-13.431472,-14.628572
1.671153,-10.91756,-2.724601
-2.762909,-2.724601,2.432509
-8.101977999999999,-7.058106,-2.145205
-8.777142999999999,-13.062764,-1.939303
3.2896330000000003,11.439496,11.674128
-1.4987700000000002,-12.215217,-0.234632
-3.505111,-5.995081,-5.928043
-1.16837,-11.444284,0.067038
-2.221819,-2.561796,1.388637
-1.848324,-7.843405000000001,-1.881842
2.087744,-7.522581,-0.009577
-0.8044520000000001,-9.749189,2.662352
-15.155296,-15.844827,3.4811690000000004
-17.348385,-22.869415,-19.531897
0.493206,-14.039598000000002,-2.901772
-6.517017,7.417236999999999,6.6941880000000005
-2.671929,-13.718776,-1.479617
-10.711658,-13.397953,-10.970232
-2.710236,-7.211335000000001,0.8475469999999999
-1.321599,-4.434061,2.087744
-6.497863,-7.019799000000001,2.202666
-5.688623000000001,-12.29662,-1.067814
-6.320692,-9.888053,18.387468
0.02873,-10.912771,-2.715025
-0.2489969999999999,-14.848839000000002,-4.151545
-2.020706,-8.063671000000001,-5.702988
-2.193089,-14.235924,-3.490746
-6.411672,-13.431472,-14.628572
1.671153,-10.91756,-2.724601
-2.762909,-2.724601,2.432509
-8.101977999999999,-7.058106,-2.145205
-8.777142999999999,-13.062764,-1.939303
3.2896330000000003,11.439496,11.674128
-1.4987700000000002,-12.215217,-0.234632
-3.505111,-5.995081,-5.928043
-1.16837,-11.444284,0.067038
-2.221819,-2.561796,1.388637
-1.848324,-7.843405000000001,-1.881842
2.087744,-7.522581,-0.009577
-0.8044520000000001,-9.749189,2.662352
-15.155296,-15.844827,3.4811690000000004
-17.348385,-22.869415,-19.531897
0.493206,-14.039598000000002,-2.901772
-6.517017,7.417236999999999,6.6941880000000005
-2.671929,-13.718776,-1.479617
-10.711658,-13.397953,-10.970232
-2.710236,-7.211335000000001,0.8475469999999999
-1.321599,-4.434061,2.087744
-6.497863,-7.019799000000001,2.202666
-5.688623000000001,-12.29662,-1.067814
-6.320692,-9.888053,18.387468
0.02873,-10.912771,-2.715025
-0.708684,-11.051635,1.857901
-0.5841850000000001,-15.394717000000002,-2.700659
-2.193089,-14.235924,-3.490746
-6.411672,-13.431472,-14.628572
1.671153,-10.91756,-2.724601
-2.762909,-2.724601,2.432509
-8.101977999999999,-7.058106,-2.145205
-8.777142999999999,-13.062764,-1.939303
3.2896330000000003,11.439496,11.674128
-1.4987700000000002,-12.215217,-0.234632
-3.505111,-5.995081,-5.928043
-1.16837,-11.444284,0.067038
-2.221819,-2.561796,1.388637
-1.848324,-7.843405000000001,-1.881842
2.087744,-7.522581,-0.009577
-0.8044520000000001,-9.749189,2.662352
-15.155296,-15.844827,3.4811690000000004
-17.348385,-22.869415,-19.531897
0.493206,-14.039598000000002,-2.901772
-6.517017,7.417236999999999,6.6941880000000005
-2.671929,-13.718776,-1.479617
-10.711658,-13.397953,-10.970232
-2.710236,-7.211335000000001,0.8475469999999999
-1.321599,-4.434061,2.087744
-6.497863,-7.019799000000001,2.202666
-5.688623000000001,-12.29662,-1.067814
-6.320692,-9.888053,18.387468
0.02873,-10.912771,-2.715025
-0.708684,-11.051635,1.857901
-0.5841850000000001,-15.394717000000002,-2.700659
-9.931149,-13.402741,-13.278243
-4.649539,-8.087613000000001,-1.599327
1.671153,-10.91756,-2.724601
-2.762909,-2.724601,2.432509
-8.101977999999999,-7.058106,-2.145205
-8.777142999999999,-13.062764,-1.939303
3.2896330000000003,11.439496,11.674128
-1.4987700000000002,-12.215217,-0.234632
-3.505111,-5.995081,-5.928043
-1.16837,-11.444284,0.067038
-2.221819,-2.561796,1.388637
-1.848324,-7.843405000000001,-1.881842
2.087744,-7.522581,-0.009577
-0.8044520000000001,-9.749189,2.662352
-15.155296,-15.844827,3.4811690000000004
-17.348385,-22.869415,-19.531897
0.493206,-14.039598000000002,-2.901772
-6.517017,7.417236999999999,6.6941880000000005
-2.671929,-13.718776,-1.479617
-10.711658,-13.397953,-10.970232
-2.710236,-7.211335000000001,0.8475469999999999
-1.321599,-4.434061,2.087744
-6.497863,-7.019799000000001,2.202666
-5.688623000000001,-12.29662,-1.067814
-6.320692,-9.888053,18.387468
0.02873,-10.912771,-2.715025
-0.708684,-11.051635,1.857901
-0.5841850000000001,-15.394717000000002,-2.700659
-9.931149,-13.402741,-13.278243
-4.649539,-8.087613000000001,-1.599327
-2.700659,-2.5187,1.80044
-6.397307,-7.517792999999999,0.8619129999999999
-8.101977999999999,-7.058106,-2.145205
-8.777142999999999,-13.062764,-1.939303
3.2896330000000003,11.439496,11.674128
-1.4987700000000002,-12.215217,-0.234632
-3.505111,-5.995081,-5.928043
-1.16837,-11.444284,0.067038
-2.221819,-2.561796,1.388637
-1.848324,-7.843405000000001,-1.881842
2.087744,-7.522581,-0.009577
-0.8044520000000001,-9.749189,2.662352
-15.155296,-15.844827,3.4811690000000004
-17.348385,-22.869415,-19.531897
0.493206,-14.039598000000002,-2.901772
-6.517017,7.417236999999999,6.6941880000000005
-2.671929,-13.718776,-1.479617
-10.711658,-13.397953,-10.970232
-2.710236,-7.211335000000001,0.8475469999999999
-1.321599,-4.434061,2.087744
-6.497863,-7.019799000000001,2.202666
-5.688623000000001,-12.29662,-1.067814
-6.320692,-9.888053,18.387468
0.02873,-10.912771,-2.715025
-0.708684,-11.051635,1.857901
-0.5841850000000001,-15.394717000000002,-2.700659
-9.931149,-13.402741,-13.278243
-4.649539,-8.087613000000001,-1.599327
-2.700659,-2.5187,1.80044
-6.397307,-7.517792999999999,0.8619129999999999
-11.535264,-13.268666,2.715025
-3.74932,-8.2169,2.60968
3.2896330000000003,11.439496,11.674128
-1.4987700000000002,-12.215217,-0.234632
-3.505111,-5.995081,-5.928043
-1.16837,-11.444284,0.067038
-2.221819,-2.561796,1.388637
-1.848324,-7.843405000000001,-1.881842
2.087744,-7.522581,-0.009577
-0.8044520000000001,-9.749189,2.662352
-15.155296,-15.844827,3.4811690000000004
-17.348385,-22.869415,-19.531897
0.493206,-14.039598000000002,-2.901772
-6.517017,7.417236999999999,6.6941880000000005
-2.671929,-13.718776,-1.479617
-10.711658,-13.397953,-10.970232
-2.710236,-7.211335000000001,0.8475469999999999
-1.321599,-4.434061,2.087744
-6.497863,-7.019799000000001,2.202666
-5.688623000000001,-12.29662,-1.067814
-6.320692,-9.888053,18.387468
0.02873,-10.912771,-2.715025
-0.708684,-11.051635,1.857901
-0.5841850000000001,-15.394717000000002,-2.700659
-9.931149,-13.402741,-13.278243
-4.649539,-8.087613000000001,-1.599327
-2.700659,-2.5187,1.80044
-6.397307,-7.517792999999999,0.8619129999999999
-11.535264,-13.268666,2.715025
-3.74932,-8.2169,2.60968
-11.319786,-12.703634,2.949657
-15.638926,-21.08813,-11.247959
-3.505111,-5.995081,-5.928043
-1.16837,-11.444284,0.067038
-2.221819,-2.561796,1.388637
-1.848324,-7.843405000000001,-1.881842
2.087744,-7.522581,-0.009577
-0.8044520000000001,-9.749189,2.662352
-15.155296,-15.844827,3.4811690000000004
-17.348385,-22.869415,-19.531897
0.493206,-14.039598000000002,-2.901772
-6.517017,7.417236999999999,6.6941880000000005
-2.671929,-13.718776,-1.479617
-10.711658,-13.397953,-10.970232
-2.710236,-7.211335000000001,0.8475469999999999
-1.321599,-4.434061,2.087744
-6.497863,-7.019799000000001,2.202666
-5.688623000000001,-12.29662,-1.067814
-6.320692,-9.888053,18.387468
0.02873,-10.912771,-2.715025
-0.708684,-11.051635,1.857901
-0.5841850000000001,-15.394717000000002,-2.700659
-9.931149,-13.402741,-13.278243
-4.649539,-8.087613000000001,-1.599327
-2.700659,-2.5187,1.80044
-6.397307,-7.517792999999999,0.8619129999999999
-11.535264,-13.268666,2.715025
-3.74932,-8.2169,2.60968
-11.319786,-12.703634,2.949657
-15.638926,-21.08813,-11.247959
-3.998317,-11.085154,-1.431733
-1.819593,-2.767697,0.90022
-2.221819,-2.561796,1.388637
-1.848324,-7.843405000000001,-1.881842
2.087744,-7.522581,-0.009577
-0.8044520000000001,-9.749189,2.662352
-15.155296,-15.844827,3.4811690000000004
-17.348385,-22.869415,-19.531897
0.493206,-14.039598000000002,-2.901772
-6.517017,7.417236999999999,6.6941880000000005
-2.671929,-13.718776,-1.479617
-10.711658,-13.397953,-10.970232
-2.710236,-7.211335000000001,0.8475469999999999
-1.321599,-4.434061,2.087744
-6.497863,-7.019799000000001,2.202666
-5.688623000000001,-12.29662,-1.067814
-6.320692,-9.888053,18.387468
0.02873,-10.912771,-2.715025
-0.708684,-11.051635,1.857901
-0.5841850000000001,-15.394717000000002,-2.700659
-9.931149,-13.402741,-13.278243
-4.649539,-8.087613000000001,-1.599327
-2.700659,-2.5187,1.80044
-6.397307,-7.517792999999999,0.8619129999999999
-11.535264,-13.268666,2.715025
-3.74932,-8.2169,2.60968
-11.319786,-12.703634,2.949657
-15.638926,-21.08813,-11.247959
-3.998317,-11.085154,-1.431733
-1.819593,-2.767697,0.90022
-1.240196,-7.613561,0.995988
0.009577,-9.940725,-0.948104
2.087744,-7.522581,-0.009577
-0.8044520000000001,-9.749189,2.662352
-15.155296,-15.844827,3.4811690000000004
-17.348385,-22.869415,-19.531897
0.493206,-14.039598000000002,-2.901772
-6.517017,7.417236999999999,6.6941880000000005
-2.671929,-13.718776,-1.479617
-10.711658,-13.397953,-10.970232
-2.710236,-7.211335000000001,0.8475469999999999
-1.321599,-4.434061,2.087744
-6.497863,-7.019799000000001,2.202666
-5.688623000000001,-12.29662,-1.067814
-6.320692,-9.888053,18.387468
0.02873,-10.912771,-2.715025
-0.708684,-11.051635,1.857901
-0.5841850000000001,-15.394717000000002,-2.700659
-9.931149,-13.402741,-13.278243
-4.649539,-8.087613000000001,-1.599327
-2.700659,-2.5187,1.80044
-6.397307,-7.517792999999999,0.8619129999999999
-11.535264,-13.268666,2.715025
-3.74932,-8.2169,2.60968
-11.319786,-12.703634,2.949657
-15.638926,-21.08813,-11.247959
-3.998317,-11.085154,-1.431733
-1.819593,-2.767697,0.90022
-1.240196,-7.613561,0.995988
0.009577,-9.940725,-0.948104
-5.142745,-17.630901,1.345541
-3.639186,-12.176909,-1.5610190000000002
-3.969586,-13.354857,-3.083732
-1.613692,-9.672575,-5.133168
-0.991199,-9.667787,-1.177947
-2.097321,0.292093,2.767697
-5.655104,-6.488286,-0.933739
-7.345411,-12.717999,-1.838747
0.555455,-10.874464,23.582888
-9.155427,-11.654974,-1.388637
-6.660669,5.214572,-2.8155810000000003
-1.848324,-12.65575,-3.65834
-7.278372999999999,-14.686032999999998,-10.065224
-3.5960910000000004,-9.016563,-1.484405
-2.37026,-1.192312,3.055001
-5.473145,-6.517017,-0.713472
-5.061342,-11.808203,-2.5378540000000003
-2.743755,1.244985,-0.440533
-3.2321720000000003,-13.469779,-2.446874
-4.285621,8.073248,2.9257150000000003
-1.388637,-12.990938,-2.394202
-7.206547,-15.710752,-13.814544
-1.666364,-8.820239,-1.565808
-2.394202,-1.335964,2.48997
-4.151545,-8.657434,-1.383848
-5.45878,-11.913548,-2.451662
-7.120356,6.713342,3.098097
-4.19943,-13.292608,-3.888183
-3.691859,5.530606,0.565032
-4.094085,-11.932701,-1.915361
-2.686294,-6.038176,-6.574477000000001
-2.494758,-7.268796000000001,3.495535
-15.155296,-15.844827,3.4811690000000004
-17.348385,-22.869415,-19.531897
0.493206,-14.039598000000002,-2.901772
-6.517017,7.417236999999999,6.6941880000000005
-2.671929,-13.718776,-1.479617
-10.711658,-13.397953,-10.970232
-2.710236,-7.211335000000001,0.8475469999999999
-1.321599,-4.434061,2.087744
-6.497863,-7.019799000000001,2.202666
-5.688623000000001,-12.29662,-1.067814
-6.320692,-9.888053,18.387468
0.02873,-10.912771,-2.715025
-0.708684,-11.051635,1.857901
-0.5841850000000001,-15.394717000000002,-2.700659
-9.931149,-13.402741,-13.278243
-4.649539,-8.087613000000001,-1.599327
-2.700659,-2.5187,1.80044
-6.397307,-7.517792999999999,0.8619129999999999
-11.535264,-13.268666,2.715025
-3.74932,-8.2169,2.60968
-11.319786,-12.703634,2.949657
-15.638926,-21.08813,-11.247959
-3.998317,-11.085154,-1.431733
-1.819593,-2.767697,0.90022
-1.240196,-7.613561,0.995988
0.009577,-9.940725,-0.948104
-5.142745,-17.630901,1.345541
-3.639186,-12.176909,-1.5610190000000002
-8.983044999999999,-9.279925,12.516887
-2.480393,-13.872005,-2.944868
0.493206,-14.039598000000002,-2.901772
-6.517017,7.417236999999999,6.6941880000000005
-2.671929,-13.718776,-1.479617
-10.711658,-13.397953,-10.970232
-2.710236,-7.211335000000001,0.8475469999999999
-1.321599,-4.434061,2.087744
-6.497863,-7.019799000000001,2.202666
-5.688623000000001,-12.29662,-1.067814
-6.320692,-9.888053,18.387468
0.02873,-10.912771,-2.715025
-0.708684,-11.051635,1.857901
-0.5841850000000001,-15.394717000000002,-2.700659
-9.931149,-13.402741,-13.278243
-4.649539,-8.087613000000001,-1.599327
-2.700659,-2.5187,1.80044
-6.397307,-7.517792999999999,0.8619129999999999
-11.535264,-13.268666,2.715025
-3.74932,-8.2169,2.60968
-11.319786,-12.703634,2.949657
-15.638926,-21.08813,-11.247959
-3.998317,-11.085154,-1.431733
-1.819593,-2.767697,0.90022
-1.240196,-7.613561,0.995988
0.009577,-9.940725,-0.948104
-5.142745,-17.630901,1.345541
-3.639186,-12.176909,-1.5610190000000002
-8.983044999999999,-9.279925,12.516887
-2.480393,-13.872005,-2.944868
-7.580042,-10.55843,-12.124237
-1.288081,-7.747636999999999,0.986411
-2.671929,-13.718776,-1.479617
-10.711658,-13.397953,-10.970232
-2.710236,-7.211335000000001,0.8475469999999999
-1.321599,-4.434061,2.087744
-6.497863,-7.019799000000001,2.202666
-5.688623000000001,-12.29662,-1.067814
-6.320692,-9.888053,18.387468
0.02873,-10.912771,-2.715025
-0.708684,-11.051635,1.857901
-0.5841850000000001,-15.394717000000002,-2.700659
-9.931149,-13.402741,-13.278243
-4.649539,-8.087613000000001,-1.599327
-2.700659,-2.5187,1.80044
-6.397307,-7.517792999999999,0.8619129999999999
-11.535264,-13.268666,2.715025
-3.74932,-8.2169,2.60968
-11.319786,-12.703634,2.949657
-15.638926,-21.08813,-11.247959
-3.998317,-11.085154,-1.431733
-1.819593,-2.767697,0.90022
-1.240196,-7.613561,0.995988
0.009577,-9.940725,-0.948104
-5.142745,-17.630901,1.345541
-3.639186,-12.176909,-1.5610190000000002
-8.983044999999999,-9.279925,12.516887
-2.480393,-13.872005,-2.944868
-7.580042,-10.55843,-12.124237
-1.288081,-7.747636999999999,0.986411
-2.791639,-2.801216,2.011129
-6.775591,-7.053317999999999,0.2489969999999999
-2.710236,-7.211335000000001,0.8475469999999999
-1.321599,-4.434061,2.087744
-6.497863,-7.019799000000001,2.202666
-5.688623000000001,-12.29662,-1.067814
-6.320692,-9.888053,18.387468
0.02873,-10.912771,-2.715025
-0.708684,-11.051635,1.857901
-0.5841850000000001,-15.394717000000002,-2.700659
-9.931149,-13.402741,-13.278243
-4.649539,-8.087613000000001,-1.599327
-2.700659,-2.5187,1.80044
-6.397307,-7.517792999999999,0.8619129999999999
-11.535264,-13.268666,2.715025
-3.74932,-8.2169,2.60968
-11.319786,-12.703634,2.949657
-15.638926,-21.08813,-11.247959
-3.998317,-11.085154,-1.431733
-1.819593,-2.767697,0.90022
-1.240196,-7.613561,0.995988
0.009577,-9.940725,-0.948104
-5.142745,-17.630901,1.345541
-3.639186,-12.176909,-1.5610190000000002
-8.983044999999999,-9.279925,12.516887
-2.480393,-13.872005,-2.944868
-7.580042,-10.55843,-12.124237
-1.288081,-7.747636999999999,0.986411
-2.791639,-2.801216,2.011129
-6.775591,-7.053317999999999,0.2489969999999999
-9.050082000000002,-12.349293,-0.0239419999999999
-1.489193,7.273585000000001,-2.461239
-6.497863,-7.019799000000001,2.202666
-5.688623000000001,-12.29662,-1.067814
-6.320692,-9.888053,18.387468
0.02873,-10.912771,-2.715025
-0.708684,-11.051635,1.857901
-0.5841850000000001,-15.394717000000002,-2.700659
-9.931149,-13.402741,-13.278243
-4.649539,-8.087613000000001,-1.599327
-2.700659,-2.5187,1.80044
-6.397307,-7.517792999999999,0.8619129999999999
-11.535264,-13.268666,2.715025
-3.74932,-8.2169,2.60968
-11.319786,-12.703634,2.949657
-15.638926,-21.08813,-11.247959
-3.998317,-11.085154,-1.431733
-1.819593,-2.767697,0.90022
-1.240196,-7.613561,0.995988
0.009577,-9.940725,-0.948104
-5.142745,-17.630901,1.345541
-3.639186,-12.176909,-1.5610190000000002
-8.983044999999999,-9.279925,12.516887
-2.480393,-13.872005,-2.944868
-7.580042,-10.55843,-12.124237
-1.288081,-7.747636999999999,0.986411
-2.791639,-2.801216,2.011129
-6.775591,-7.053317999999999,0.2489969999999999
-9.050082000000002,-12.349293,-0.0239419999999999
-1.489193,7.273585000000001,-2.461239
-5.961562000000001,-12.411542,-2.145205
5.932832,9.083601,17.736245999999998
-6.320692,-9.888053,18.387468
0.02873,-10.912771,-2.715025
-0.708684,-11.051635,1.857901
-0.5841850000000001,-15.394717000000002,-2.700659
-9.931149,-13.402741,-13.278243
-4.649539,-8.087613000000001,-1.599327
-2.700659,-2.5187,1.80044
-6.397307,-7.517792999999999,0.8619129999999999
-11.535264,-13.268666,2.715025
-3.74932,-8.2169,2.60968
-11.319786,-12.703634,2.949657
-15.638926,-21.08813,-11.247959
-3.998317,-11.085154,-1.431733
-1.819593,-2.767697,0.90022
-1.240196,-7.613561,0.995988
0.009577,-9.940725,-0.948104
-5.142745,-17.630901,1.345541
-3.639186,-12.176909,-1.5610190000000002
-8.983044999999999,-9.279925,12.516887
-2.480393,-13.872005,-2.944868
-7.580042,-10.55843,-12.124237
-1.288081,-7.747636999999999,0.986411
-2.791639,-2.801216,2.011129
-6.775591,-7.053317999999999,0.2489969999999999
-9.050082000000002,-12.349293,-0.0239419999999999
-1.489193,7.273585000000001,-2.461239
-5.961562000000001,-12.411542,-2.145205
5.932832,9.083601,17.736245999999998
-3.916914,-12.229582,-0.545878
-1.278504,-4.965574,-4.630386
-0.708684,-11.051635,1.857901
-0.5841850000000001,-15.394717000000002,-2.700659
-9.931149,-13.402741,-13.278243
-4.649539,-8.087613000000001,-1.599327
-2.700659,-2.5187,1.80044
-6.397307,-7.517792999999999,0.8619129999999999
-11.535264,-13.268666,2.715025
-3.74932,-8.2169,2.60968
-11.319786,-12.703634,2.949657
-15.638926,-21.08813,-11.247959
-3.998317,-11.085154,-1.431733
-1.819593,-2.767697,0.90022
-1.240196,-7.613561,0.995988
0.009577,-9.940725,-0.948104
-5.142745,-17.630901,1.345541
-3.639186,-12.176909,-1.5610190000000002
-8.983044999999999,-9.279925,12.516887
-2.480393,-13.872005,-2.944868
-7.580042,-10.55843,-12.124237
-1.288081,-7.747636999999999,0.986411
-2.791639,-2.801216,2.011129
-6.775591,-7.053317999999999,0.2489969999999999
-9.050082000000002,-12.349293,-0.0239419999999999
-1.489193,7.273585000000001,-2.461239
-5.961562000000001,-12.411542,-2.145205
5.932832,9.083601,17.736245999999998
-3.916914,-12.229582,-0.545878
-1.278504,-4.965574,-4.630386
-1.934515,-7.661445,-1.35033
-2.475604,-11.305421,-0.8523360000000001
-9.931149,-13.402741,-13.278243
-4.649539,-8.087613000000001,-1.599327
-2.700659,-2.5187,1.80044
-6.397307,-7.517792999999999,0.8619129999999999
-11.535264,-13.268666,2.715025
-3.74932,-8.2169,2.60968
-11.319786,-12.703634,2.949657
-15.638926,-21.08813,-11.247959
-3.998317,-11.085154,-1.431733
-1.819593,-2.767697,0.90022
-1.240196,-7.613561,0.995988
0.009577,-9.940725,-0.948104
-5.142745,-17.630901,1.345541
-3.639186,-12.176909,-1.5610190000000002
-8.983044999999999,-9.279925,12.516887
-2.480393,-13.872005,-2.944868
-7.580042,-10.55843,-12.124237
-1.288081,-7.747636999999999,0.986411
-2.791639,-2.801216,2.011129
-6.775591,-7.053317999999999,0.2489969999999999
-9.050082000000002,-12.349293,-0.0239419999999999
-1.489193,7.273585000000001,-2.461239
-5.961562000000001,-12.411542,-2.145205
5.932832,9.083601,17.736245999999998
-3.916914,-12.229582,-0.545878
-1.278504,-4.965574,-4.630386
-1.934515,-7.661445,-1.35033
-2.475604,-11.305421,-0.8523360000000001
0.019154,-11.812991,20.51352
-4.065354,-13.958196,-2.671929
-2.700659,-2.5187,1.80044
-6.397307,-7.517792999999999,0.8619129999999999
-11.535264,-13.268666,2.715025
-3.74932,-8.2169,2.60968
-11.319786,-12.703634,2.949657
-15.638926,-21.08813,-11.247959
-3.998317,-11.085154,-1.431733
-1.819593,-2.767697,0.90022
-1.240196,-7.613561,0.995988
0.009577,-9.940725,-0.948104
-5.142745,-17.630901,1.345541
-3.639186,-12.176909,-1.5610190000000002
-8.983044999999999,-9.279925,12.516887
-2.480393,-13.872005,-2.944868
-7.580042,-10.55843,-12.124237
-1.288081,-7.747636999999999,0.986411
-2.791639,-2.801216,2.011129
-6.775591,-7.053317999999999,0.2489969999999999
-9.050082000000002,-12.349293,-0.0239419999999999
-1.489193,7.273585000000001,-2.461239
-5.961562000000001,-12.411542,-2.145205
5.932832,9.083601,17.736245999999998
-3.916914,-12.229582,-0.545878
-1.278504,-4.965574,-4.630386
-1.934515,-7.661445,-1.35033
-2.475604,-11.305421,-0.8523360000000001
0.019154,-11.812991,20.51352
-4.065354,-13.958196,-2.671929
-10.376471,-11.36767,-12.555194
-5.348646,-12.306197,-1.537077
-11.535264,-13.268666,2.715025
-3.74932,-8.2169,2.60968
-11.319786,-12.703634,2.949657
-15.638926,-21.08813,-11.247959
-3.998317,-11.085154,-1.431733
-1.819593,-2.767697,0.90022
-1.240196,-7.613561,0.995988
0.009577,-9.940725,-0.948104
-5.142745,-17.630901,1.345541
-3.639186,-12.176909,-1.5610190000000002
-8.983044999999999,-9.279925,12.516887
-2.480393,-13.872005,-2.944868
-7.580042,-10.55843,-12.124237
-1.288081,-7.747636999999999,0.986411
-2.791639,-2.801216,2.011129
-6.775591,-7.053317999999999,0.2489969999999999
-9.050082000000002,-12.349293,-0.0239419999999999
-1.489193,7.273585000000001,-2.461239
-5.961562000000001,-12.411542,-2.145205
5.932832,9.083601,17.736245999999998
-3.916914,-12.229582,-0.545878
-1.278504,-4.965574,-4.630386
-1.934515,-7.661445,-1.35033
-2.475604,-11.305421,-0.8523360000000001
0.019154,-11.812991,20.51352
-4.065354,-13.958196,-2.671929
-10.376471,-11.36767,-12.555194
-5.348646,-12.306197,-1.537077
-3.471592,-7.824250999999999,-9.840169
-1.422156,-8.283937,0.976834
-0.991199,-9.667787,-1.177947
-2.097321,0.292093,2.767697
-5.655104,-6.488286,-0.933739
-7.345411,-12.717999,-1.838747
0.555455,-10.874464,23.582888
-9.155427,-11.654974,-1.388637
-6.660669,5.214572,-2.8155810000000003
-1.848324,-12.65575,-3.65834
-7.278372999999999,-14.686032999999998,-10.065224
-3.5960910000000004,-9.016563,-1.484405
-2.37026,-1.192312,3.055001
-5.473145,-6.517017,-0.713472
-5.061342,-11.808203,-2.5378540000000003
-2.743755,1.244985,-0.440533
-3.2321720000000003,-13.469779,-2.446874
-4.285621,8.073248,2.9257150000000003
-1.388637,-12.990938,-2.394202
-7.206547,-15.710752,-13.814544
-1.666364,-8.820239,-1.565808
-2.394202,-1.335964,2.48997
-4.151545,-8.657434,-1.383848
-5.45878,-11.913548,-2.451662
-7.120356,6.713342,3.098097
-4.19943,-13.292608,-3.888183
-3.691859,5.530606,0.565032
-4.094085,-11.932701,-1.915361
-2.686294,-6.038176,-6.574477000000001
-2.494758,-7.268796000000001,3.495535
-0.751779,-4.189853,2.049437
-7.934384,-6.133945,0.186748
-11.319786,-12.703634,2.949657
-15.638926,-21.08813,-11.247959
-3.998317,-11.085154,-1.431733
-1.819593,-2.767697,0.90022
-1.240196,-7.613561,0.995988
0.009577,-9.940725,-0.948104
-5.142745,-17.630901,1.345541
-3.639186,-12.176909,-1.5610190000000002
-8.983044999999999,-9.279925,12.516887
-2.480393,-13.872005,-2.944868
-7.580042,-10.55843,-12.124237
-1.288081,-7.747636999999999,0.986411
-2.791639,-2.801216,2.011129
-6.775591,-7.053317999999999,0.2489969999999999
-9.050082000000002,-12.349293,-0.0239419999999999
-1.489193,7.273585000000001,-2.461239
-5.961562000000001,-12.411542,-2.145205
5.932832,9.083601,17.736245999999998
-3.916914,-12.229582,-0.545878
-1.278504,-4.965574,-4.630386
-1.934515,-7.661445,-1.35033
-2.475604,-11.305421,-0.8523360000000001
0.019154,-11.812991,20.51352
-4.065354,-13.958196,-2.671929
-10.376471,-11.36767,-12.555194
-5.348646,-12.306197,-1.537077
-3.471592,-7.824250999999999,-9.840169
-1.422156,-8.283937,0.976834
1.474828,-8.480263,0.8379709999999999
2.37026,-12.430696,-2.059013
-3.998317,-11.085154,-1.431733
-1.819593,-2.767697,0.90022
-1.240196,-7.613561,0.995988
0.009577,-9.940725,-0.948104
-5.142745,-17.630901,1.345541
-3.639186,-12.176909,-1.5610190000000002
-8.983044999999999,-9.279925,12.516887
-2.480393,-13.872005,-2.944868
-7.580042,-10.55843,-12.124237
-1.288081,-7.747636999999999,0.986411
-2.791639,-2.801216,2.011129
-6.775591,-7.053317999999999,0.2489969999999999
-9.050082000000002,-12.349293,-0.0239419999999999
-1.489193,7.273585000000001,-2.461239
-5.961562000000001,-12.411542,-2.145205
5.932832,9.083601,17.736245999999998
-3.916914,-12.229582,-0.545878
-1.278504,-4.965574,-4.630386
-1.934515,-7.661445,-1.35033
-2.475604,-11.305421,-0.8523360000000001
0.019154,-11.812991,20.51352
-4.065354,-13.958196,-2.671929
-10.376471,-11.36767,-12.555194
-5.348646,-12.306197,-1.537077
-3.471592,-7.824250999999999,-9.840169
-1.422156,-8.283937,0.976834
1.474828,-8.480263,0.8379709999999999
2.37026,-12.430696,-2.059013
-3.715801,-13.536817,-1.13964
-3.955221,-7.809886,-5.961562000000001
-1.240196,-7.613561,0.995988
0.009577,-9.940725,-0.948104
-5.142745,-17.630901,1.345541
-3.639186,-12.176909,-1.5610190000000002
-8.983044999999999,-9.279925,12.516887
-2.480393,-13.872005,-2.944868
-7.580042,-10.55843,-12.124237
-1.288081,-7.747636999999999,0.986411
-2.791639,-2.801216,2.011129
-6.775591,-7.053317999999999,0.2489969999999999
-9.050082000000002,-12.349293,-0.0239419999999999
-1.489193,7.273585000000001,-2.461239
-5.961562000000001,-12.411542,-2.145205
5.932832,9.083601,17.736245999999998
-3.916914,-12.229582,-0.545878
-1.278504,-4.965574,-4.630386
-1.934515,-7.661445,-1.35033
-2.475604,-11.305421,-0.8523360000000001
0.019154,-11.812991,20.51352
-4.065354,-13.958196,-2.671929
-10.376471,-11.36767,-12.555194
-5.348646,-12.306197,-1.537077
-3.471592,-7.824250999999999,-9.840169
-1.422156,-8.283937,0.976834
1.474828,-8.480263,0.8379709999999999
2.37026,-12.430696,-2.059013
-3.715801,-13.536817,-1.13964
-3.955221,-7.809886,-5.961562000000001
-0.363919,-11.69807,-2.178723
-5.449203,-3.371036,-4.707
-5.142745,-17.630901,1.345541
-3.639186,-12.176909,-1.5610190000000002
-8.983044999999999,-9.279925,12.516887
-2.480393,-13.872005,-2.944868
-7.580042,-10.55843,-12.124237
-1.288081,-7.747636999999999,0.986411
-2.791639,-2.801216,2.011129
-6.775591,-7.053317999999999,0.2489969999999999
-9.050082000000002,-12.349293,-0.0239419999999999
-1.489193,7.273585000000001,-2.461239
-5.961562000000001,-12.411542,-2.145205
5.932832,9.083601,17.736245999999998
-3.916914,-12.229582,-0.545878
-1.278504,-4.965574,-4.630386
-1.934515,-7.661445,-1.35033
-2.475604,-11.305421,-0.8523360000000001
0.019154,-11.812991,20.51352
-4.065354,-13.958196,-2.671929
-10.376471,-11.36767,-12.555194
-5.348646,-12.306197,-1.537077
-3.471592,-7.824250999999999,-9.840169
-1.422156,-8.283937,0.976834
1.474828,-8.480263,0.8379709999999999
2.37026,-12.430696,-2.059013
-3.715801,-13.536817,-1.13964
-3.955221,-7.809886,-5.961562000000001
-0.363919,-11.69807,-2.178723
-5.449203,-3.371036,-4.707
-3.394978,-9.974244,-3.318364
-1.833958,-2.63841,2.686294
-8.983044999999999,-9.279925,12.516887
-2.480393,-13.872005,-2.944868
-7.580042,-10.55843,-12.124237
-1.288081,-7.747636999999999,0.986411
-2.791639,-2.801216,2.011129
-6.775591,-7.053317999999999,0.2489969999999999
-9.050082000000002,-12.349293,-0.0239419999999999
-1.489193,7.273585000000001,-2.461239
-5.961562000000001,-12.411542,-2.145205
5.932832,9.083601,17.736245999999998
-3.916914,-12.229582,-0.545878
-1.278504,-4.965574,-4.630386
-1.934515,-7.661445,-1.35033
-2.475604,-11.305421,-0.8523360000000001
0.019154,-11.812991,20.51352
-4.065354,-13.958196,-2.671929
-10.376471,-11.36767,-12.555194
-5.348646,-12.306197,-1.537077
-3.471592,-7.824250999999999,-9.840169
-1.422156,-8.283937,0.976834
1.474828,-8.480263,0.8379709999999999
2.37026,-12.430696,-2.059013
-3.715801,-13.536817,-1.13964
-3.955221,-7.809886,-5.961562000000001
-0.363919,-11.69807,-2.178723
-5.449203,-3.371036,-4.707
-3.394978,-9.974244,-3.318364
-1.833958,-2.63841,2.686294
-6.4068830000000005,-7.129933,-1.206678
-9.763555,-13.761871,-2.676717
-7.580042,-10.55843,-12.124237
-1.288081,-7.747636999999999,0.986411
-2.791639,-2.801216,2.011129
-6.775591,-7.053317999999999,0.2489969999999999
-9.050082000000002,-12.349293,-0.0239419999999999
-1.489193,7.273585000000001,-2.461239
-5.961562000000001,-12.411542,-2.145205
5.932832,9.083601,17.736245999999998
-3.916914,-12.229582,-0.545878
-1.278504,-4.965574,-4.630386
-1.934515,-7.661445,-1.35033
-2.475604,-11.305421,-0.8523360000000001
0.019154,-11.812991,20.51352
-4.065354,-13.958196,-2.671929
-10.376471,-11.36767,-12.555194
-5.348646,-12.306197,-1.537077
-3.471592,-7.824250999999999,-9.840169
-1.422156,-8.283937,0.976834
1.474828,-8.480263,0.8379709999999999
2.37026,-12.430696,-2.059013
-3.715801,-13.536817,-1.13964
-3.955221,-7.809886,-5.961562000000001
-0.363919,-11.69807,-2.178723
-5.449203,-3.371036,-4.707
-3.394978,-9.974244,-3.318364
-1.833958,-2.63841,2.686294
-6.4068830000000005,-7.129933,-1.206678
-9.763555,-13.761871,-2.676717
-6.129156,-2.528277,-15.897499
-4.151545,-13.747506,-3.888183
-2.791639,-2.801216,2.011129
-6.775591,-7.053317999999999,0.2489969999999999
-9.050082000000002,-12.349293,-0.0239419999999999
-1.489193,7.273585000000001,-2.461239
-5.961562000000001,-12.411542,-2.145205
5.932832,9.083601,17.736245999999998
-3.916914,-12.229582,-0.545878
-1.278504,-4.965574,-4.630386
-1.934515,-7.661445,-1.35033
-2.475604,-11.305421,-0.8523360000000001
0.019154,-11.812991,20.51352
-4.065354,-13.958196,-2.671929
-10.376471,-11.36767,-12.555194
-5.348646,-12.306197,-1.537077
-3.471592,-7.824250999999999,-9.840169
-1.422156,-8.283937,0.976834
1.474828,-8.480263,0.8379709999999999
2.37026,-12.430696,-2.059013
-3.715801,-13.536817,-1.13964
-3.955221,-7.809886,-5.961562000000001
-0.363919,-11.69807,-2.178723
-5.449203,-3.371036,-4.707
-3.394978,-9.974244,-3.318364
-1.833958,-2.63841,2.686294
-6.4068830000000005,-7.129933,-1.206678
-9.763555,-13.761871,-2.676717
-6.129156,-2.528277,-15.897499
-4.151545,-13.747506,-3.888183
-14.298173,-16.069881,-19.67555
-4.19943,-13.613431,-3.610456
-9.050082000000002,-12.349293,-0.0239419999999999
-1.489193,7.273585000000001,-2.461239
-5.961562000000001,-12.411542,-2.145205
5.932832,9.083601,17.736245999999998
-3.916914,-12.229582,-0.545878
-1.278504,-4.965574,-4.630386
-1.934515,-7.661445,-1.35033
-2.475604,-11.305421,-0.8523360000000001
0.019154,-11.812991,20.51352
-4.065354,-13.958196,-2.671929
-10.376471,-11.36767,-12.555194
-5.348646,-12.306197,-1.537077
-3.471592,-7.824250999999999,-9.840169
-1.422156,-8.283937,0.976834
1.474828,-8.480263,0.8379709999999999
2.37026,-12.430696,-2.059013
-3.715801,-13.536817,-1.13964
-3.955221,-7.809886,-5.961562000000001
-0.363919,-11.69807,-2.178723
-5.449203,-3.371036,-4.707
-3.394978,-9.974244,-3.318364
-1.833958,-2.63841,2.686294
-6.4068830000000005,-7.129933,-1.206678
-9.763555,-13.761871,-2.676717
-6.129156,-2.528277,-15.897499
-4.151545,-13.747506,-3.888183
-14.298173,-16.069881,-19.67555
-4.19943,-13.613431,-3.610456
-8.192958,-14.781801000000002,-15.102624
-4.46758,-8.169016000000001,-0.770933
-5.961562000000001,-12.411542,-2.145205
5.932832,9.083601,17.736245999999998
-3.916914,-12.229582,-0.545878
-1.278504,-4.965574,-4.630386
-1.934515,-7.661445,-1.35033
-2.475604,-11.305421,-0.8523360000000001
0.019154,-11.812991,20.51352
-4.065354,-13.958196,-2.671929
-10.376471,-11.36767,-12.555194
-5.348646,-12.306197,-1.537077
-3.471592,-7.824250999999999,-9.840169
-1.422156,-8.283937,0.976834
1.474828,-8.480263,0.8379709999999999
2.37026,-12.430696,-2.059013
-3.715801,-13.536817,-1.13964
-3.955221,-7.809886,-5.961562000000001
-0.363919,-11.69807,-2.178723
-5.449203,-3.371036,-4.707
-3.394978,-9.974244,-3.318364
-1.833958,-2.63841,2.686294
-6.4068830000000005,-7.129933,-1.206678
-9.763555,-13.761871,-2.676717
-6.129156,-2.528277,-15.897499
-4.151545,-13.747506,-3.888183
-14.298173,-16.069881,-19.67555
-4.19943,-13.613431,-3.610456
-8.192958,-14.781801000000002,-15.102624
-4.46758,-8.169016000000001,-0.770933
-3.74932,-2.662352,2.456451
-6.574477000000001,-7.958326,-0.397437
-3.916914,-12.229582,-0.545878
-1.278504,-4.965574,-4.630386
-1.934515,-7.661445,-1.35033
-2.475604,-11.305421,-0.8523360000000001
0.019154,-11.812991,20.51352
-4.065354,-13.958196,-2.671929
-10.376471,-11.36767,-12.555194
-5.348646,-12.306197,-1.537077
-3.471592,-7.824250999999999,-9.840169
-1.422156,-8.283937,0.976834
1.474828,-8.480263,0.8379709999999999
2.37026,-12.430696,-2.059013
-3.715801,-13.536817,-1.13964
-3.955221,-7.809886,-5.961562000000001
-0.363919,-11.69807,-2.178723
-5.449203,-3.371036,-4.707
-3.394978,-9.974244,-3.318364
-1.833958,-2.63841,2.686294
-6.4068830000000005,-7.129933,-1.206678
-9.763555,-13.761871,-2.676717
-6.129156,-2.528277,-15.897499
-4.151545,-13.747506,-3.888183
-14.298173,-16.069881,-19.67555
-4.19943,-13.613431,-3.610456
-8.192958,-14.781801000000002,-15.102624
-4.46758,-8.169016000000001,-0.770933
-3.74932,-2.662352,2.456451
-6.574477000000001,-7.958326,-0.397437
-8.863335000000001,-12.646173,-1.144428
2.106898,7.824250999999999,9.198523
-5.655104,-6.488286,-0.933739
-7.345411,-12.717999,-1.838747
0.555455,-10.874464,23.582888
-9.155427,-11.654974,-1.388637
-6.660669,5.214572,-2.8155810000000003
-1.848324,-12.65575,-3.65834
-7.278372999999999,-14.686032999999998,-10.065224
-3.5960910000000004,-9.016563,-1.484405
-2.37026,-1.192312,3.055001
-5.473145,-6.517017,-0.713472
-5.061342,-11.808203,-2.5378540000000003
-2.743755,1.244985,-0.440533
-3.2321720000000003,-13.469779,-2.446874
-4.285621,8.073248,2.9257150000000003
-1.388637,-12.990938,-2.394202
-7.206547,-15.710752,-13.814544
-1.666364,-8.820239,-1.565808
-2.394202,-1.335964,2.48997
-4.151545,-8.657434,-1.383848
-5.45878,-11.913548,-2.451662
-7.120356,6.713342,3.098097
-4.19943,-13.292608,-3.888183
-3.691859,5.530606,0.565032
-4.094085,-11.932701,-1.915361
-2.686294,-6.038176,-6.574477000000001
-2.494758,-7.268796000000001,3.495535
-0.751779,-4.189853,2.049437
-7.934384,-6.133945,0.186748
-9.849746,-15.380351999999998,-1.086968
-0.8762780000000001,5.602432,2.212242
-1.934515,-7.661445,-1.35033
-2.475604,-11.305421,-0.8523360000000001
0.019154,-11.812991,20.51352
-4.065354,-13.958196,-2.671929
-10.376471,-11.36767,-12.555194
-5.348646,-12.306197,-1.537077
-3.471592,-7.824250999999999,-9.840169
-1.422156,-8.283937,0.976834
1.474828,-8.480263,0.8379709999999999
2.37026,-12.430696,-2.059013
-3.715801,-13.536817,-1.13964
-3.955221,-7.809886,-5.961562000000001
-0.363919,-11.69807,-2.178723
-5.449203,-3.371036,-4.707
-3.394978,-9.974244,-3.318364
-1.833958,-2.63841,2.686294
-6.4068830000000005,-7.129933,-1.206678
-9.763555,-13.761871,-2.676717
-6.129156,-2.528277,-15.897499
-4.151545,-13.747506,-3.888183
-14.298173,-16.069881,-19.67555
-4.19943,-13.613431,-3.610456
-8.192958,-14.781801000000002,-15.102624
-4.46758,-8.169016000000001,-0.770933
-3.74932,-2.662352,2.456451
-6.574477000000001,-7.958326,-0.397437
-8.863335000000001,-12.646173,-1.144428
2.106898,7.824250999999999,9.198523
-1.182736,-12.047623,-0.756568
-14.69561,-25.809494,-10.534488
0.019154,-11.812991,20.51352
-4.065354,-13.958196,-2.671929
-10.376471,-11.36767,-12.555194
-5.348646,-12.306197,-1.537077
-3.471592,-7.824250999999999,-9.840169
-1.422156,-8.283937,0.976834
1.474828,-8.480263,0.8379709999999999
2.37026,-12.430696,-2.059013
-3.715801,-13.536817,-1.13964
-3.955221,-7.809886,-5.961562000000001
-0.363919,-11.69807,-2.178723
-5.449203,-3.371036,-4.707
-3.394978,-9.974244,-3.318364
-1.833958,-2.63841,2.686294
-6.4068830000000005,-7.129933,-1.206678
-9.763555,-13.761871,-2.676717
-6.129156,-2.528277,-15.897499
-4.151545,-13.747506,-3.888183
-14.298173,-16.069881,-19.67555
-4.19943,-13.613431,-3.610456
-8.192958,-14.781801000000002,-15.102624
-4.46758,-8.169016000000001,-0.770933
-3.74932,-2.662352,2.456451
-6.574477000000001,-7.958326,-0.397437
-8.863335000000001,-12.646173,-1.144428
2.106898,7.824250999999999,9.198523
-1.182736,-12.047623,-0.756568
-14.69561,-25.809494,-10.534488
-1.201889,-11.851298,-0.134075
-2.145205,-4.170699,-1.450886
-10.376471,-11.36767,-12.555194
-5.348646,-12.306197,-1.537077
-3.471592,-7.824250999999999,-9.840169
-1.422156,-8.283937,0.976834
1.474828,-8.480263,0.8379709999999999
2.37026,-12.430696,-2.059013
-3.715801,-13.536817,-1.13964
-3.955221,-7.809886,-5.961562000000001
-0.363919,-11.69807,-2.178723
-5.449203,-3.371036,-4.707
-3.394978,-9.974244,-3.318364
-1.833958,-2.63841,2.686294
-6.4068830000000005,-7.129933,-1.206678
-9.763555,-13.761871,-2.676717
-6.129156,-2.528277,-15.897499
-4.151545,-13.747506,-3.888183
-14.298173,-16.069881,-19.67555
-4.19943,-13.613431,-3.610456
-8.192958,-14.781801000000002,-15.102624
-4.46758,-8.169016000000001,-0.770933
-3.74932,-2.662352,2.456451
-6.574477000000001,-7.958326,-0.397437
-8.863335000000001,-12.646173,-1.144428
2.106898,7.824250999999999,9.198523
-1.182736,-12.047623,-0.756568
-14.69561,-25.809494,-10.534488
-1.201889,-11.851298,-0.134075
-2.145205,-4.170699,-1.450886
-1.7525560000000002,-7.833828,-1.838747
-1.7046720000000002,-10.271125,-1.312023
-3.471592,-7.824250999999999,-9.840169
-1.422156,-8.283937,0.976834
1.474828,-8.480263,0.8379709999999999
2.37026,-12.430696,-2.059013
-3.715801,-13.536817,-1.13964
-3.955221,-7.809886,-5.961562000000001
-0.363919,-11.69807,-2.178723
-5.449203,-3.371036,-4.707
-3.394978,-9.974244,-3.318364
-1.833958,-2.63841,2.686294
-6.4068830000000005,-7.129933,-1.206678
-9.763555,-13.761871,-2.676717
-6.129156,-2.528277,-15.897499
-4.151545,-13.747506,-3.888183
-14.298173,-16.069881,-19.67555
-4.19943,-13.613431,-3.610456
-8.192958,-14.781801000000002,-15.102624
-4.46758,-8.169016000000001,-0.770933
-3.74932,-2.662352,2.456451
-6.574477000000001,-7.958326,-0.397437
-8.863335000000001,-12.646173,-1.144428
2.106898,7.824250999999999,9.198523
-1.182736,-12.047623,-0.756568
-14.69561,-25.809494,-10.534488
-1.201889,-11.851298,-0.134075
-2.145205,-4.170699,-1.450886
-1.7525560000000002,-7.833828,-1.838747
-1.7046720000000002,-10.271125,-1.312023
-3.466804,-17.769766,3.452439
-0.593762,-15.083470000000002,-2.987964
1.474828,-8.480263,0.8379709999999999
2.37026,-12.430696,-2.059013
-3.715801,-13.536817,-1.13964
-3.955221,-7.809886,-5.961562000000001
-0.363919,-11.69807,-2.178723
-5.449203,-3.371036,-4.707
-3.394978,-9.974244,-3.318364
-1.833958,-2.63841,2.686294
-6.4068830000000005,-7.129933,-1.206678
-9.763555,-13.761871,-2.676717
-6.129156,-2.528277,-15.897499
-4.151545,-13.747506,-3.888183
-14.298173,-16.069881,-19.67555
-4.19943,-13.613431,-3.610456
-8.192958,-14.781801000000002,-15.102624
-4.46758,-8.169016000000001,-0.770933
-3.74932,-2.662352,2.456451
-6.574477000000001,-7.958326,-0.397437
-8.863335000000001,-12.646173,-1.144428
2.106898,7.824250999999999,9.198523
-1.182736,-12.047623,-0.756568
-14.69561,-25.809494,-10.534488
-1.201889,-11.851298,-0.134075
-2.145205,-4.170699,-1.450886
-1.7525560000000002,-7.833828,-1.838747
-1.7046720000000002,-10.271125,-1.312023
-3.466804,-17.769766,3.452439
-0.593762,-15.083470000000002,-2.987964
-7.015011,-17.956512,-15.2367
-0.814029,-13.752295000000002,-4.050989
-3.715801,-13.536817,-1.13964
-3.955221,-7.809886,-5.961562000000001
-0.363919,-11.69807,-2.178723
-5.449203,-3.371036,-4.707
-3.394978,-9.974244,-3.318364
-1.833958,-2.63841,2.686294
-6.4068830000000005,-7.129933,-1.206678
-9.763555,-13.761871,-2.676717
-6.129156,-2.528277,-15.897499
-4.151545,-13.747506,-3.888183
-14.298173,-16.069881,-19.67555
-4.19943,-13.613431,-3.610456
-8.192958,-14.781801000000002,-15.102624
-4.46758,-8.169016000000001,-0.770933
-3.74932,-2.662352,2.456451
-6.574477000000001,-7.958326,-0.397437
-8.863335000000001,-12.646173,-1.144428
2.106898,7.824250999999999,9.198523
-1.182736,-12.047623,-0.756568
-14.69561,-25.809494,-10.534488
-1.201889,-11.851298,-0.134075
-2.145205,-4.170699,-1.450886
-1.7525560000000002,-7.833828,-1.838747
-1.7046720000000002,-10.271125,-1.312023
-3.466804,-17.769766,3.452439
-0.593762,-15.083470000000002,-2.987964
-7.015011,-17.956512,-15.2367
-0.814029,-13.752295000000002,-4.050989
-5.96635,-11.453861,-13.479356
1.197101,-11.03727,-3.615245
-0.363919,-11.69807,-2.178723
-5.449203,-3.371036,-4.707
-3.394978,-9.974244,-3.318364
-1.833958,-2.63841,2.686294
-6.4068830000000005,-7.129933,-1.206678
-9.763555,-13.761871,-2.676717
-6.129156,-2.528277,-15.897499
-4.151545,-13.747506,-3.888183
-14.298173,-16.069881,-19.67555
-4.19943,-13.613431,-3.610456
-8.192958,-14.781801000000002,-15.102624
-4.46758,-8.169016000000001,-0.770933
-3.74932,-2.662352,2.456451
-6.574477000000001,-7.958326,-0.397437
-8.863335000000001,-12.646173,-1.144428
2.106898,7.824250999999999,9.198523
-1.182736,-12.047623,-0.756568
-14.69561,-25.809494,-10.534488
-1.201889,-11.851298,-0.134075
-2.145205,-4.170699,-1.450886
-1.7525560000000002,-7.833828,-1.838747
-1.7046720000000002,-10.271125,-1.312023
-3.466804,-17.769766,3.452439
-0.593762,-15.083470000000002,-2.987964
-7.015011,-17.956512,-15.2367
-0.814029,-13.752295000000002,-4.050989
-5.96635,-11.453861,-13.479356
1.197101,-11.03727,-3.615245
-2.633622,-3.08852,1.13964
-4.7788260000000005,-8.853758000000001,-0.933739
-3.394978,-9.974244,-3.318364
-1.833958,-2.63841,2.686294
-6.4068830000000005,-7.129933,-1.206678
-9.763555,-13.761871,-2.676717
-6.129156,-2.528277,-15.897499
-4.151545,-13.747506,-3.888183
-14.298173,-16.069881,-19.67555
-4.19943,-13.613431,-3.610456
-8.192958,-14.781801000000002,-15.102624
-4.46758,-8.169016000000001,-0.770933
-3.74932,-2.662352,2.456451
-6.574477000000001,-7.958326,-0.397437
-8.863335000000001,-12.646173,-1.144428
2.106898,7.824250999999999,9.198523
-1.182736,-12.047623,-0.756568
-14.69561,-25.809494,-10.534488
-1.201889,-11.851298,-0.134075
-2.145205,-4.170699,-1.450886
-1.7525560000000002,-7.833828,-1.838747
-1.7046720000000002,-10.271125,-1.312023
-3.466804,-17.769766,3.452439
-0.593762,-15.083470000000002,-2.987964
-7.015011,-17.956512,-15.2367
-0.814029,-13.752295000000002,-4.050989
-5.96635,-11.453861,-13.479356
1.197101,-11.03727,-3.615245
-2.633622,-3.08852,1.13964
-4.7788260000000005,-8.853758000000001,-0.933739
-6.775591,-15.102624,3.342306
-7.082048,-10.639832,-7.541735000000001
-6.4068830000000005,-7.129933,-1.206678
-9.763555,-13.761871,-2.676717
-6.129156,-2.528277,-15.897499
-4.151545,-13.747506,-3.888183
-14.298173,-16.069881,-19.67555
-4.19943,-13.613431,-3.610456
-8.192958,-14.781801000000002,-15.102624
-4.46758,-8.169016000000001,-0.770933
-3.74932,-2.662352,2.456451
-6.574477000000001,-7.958326,-0.397437
-8.863335000000001,-12.646173,-1.144428
2.106898,7.824250999999999,9.198523
-1.182736,-12.047623,-0.756568
-14.69561,-25.809494,-10.534488
-1.201889,-11.851298,-0.134075
-2.145205,-4.170699,-1.450886
-1.7525560000000002,-7.833828,-1.838747
-1.7046720000000002,-10.271125,-1.312023
-3.466804,-17.769766,3.452439
-0.593762,-15.083470000000002,-2.987964
-7.015011,-17.956512,-15.2367
-0.814029,-13.752295000000002,-4.050989
-5.96635,-11.453861,-13.479356
1.197101,-11.03727,-3.615245
-2.633622,-3.08852,1.13964
-4.7788260000000005,-8.853758000000001,-0.933739
-6.775591,-15.102624,3.342306
-7.082048,-10.639832,-7.541735000000001
-2.614468,-12.47858,-0.512359
-2.173935,-6.17704,-4.707
-6.129156,-2.528277,-15.897499
-4.151545,-13.747506,-3.888183
-14.298173,-16.069881,-19.67555
-4.19943,-13.613431,-3.610456
-8.192958,-14.781801000000002,-15.102624
-4.46758,-8.169016000000001,-0.770933
-3.74932,-2.662352,2.456451
-6.574477000000001,-7.958326,-0.397437
-8.863335000000001,-12.646173,-1.144428
2.106898,7.824250999999999,9.198523
-1.182736,-12.047623,-0.756568
-14.69561,-25.809494,-10.534488
-1.201889,-11.851298,-0.134075
-2.145205,-4.170699,-1.450886
-1.7525560000000002,-7.833828,-1.838747
-1.7046720000000002,-10.271125,-1.312023
-3.466804,-17.769766,3.452439
-0.593762,-15.083470000000002,-2.987964
-7.015011,-17.956512,-15.2367
-0.814029,-13.752295000000002,-4.050989
-5.96635,-11.453861,-13.479356
1.197101,-11.03727,-3.615245
-2.633622,-3.08852,1.13964
-4.7788260000000005,-8.853758000000001,-0.933739
-6.775591,-15.102624,3.342306
-7.082048,-10.639832,-7.541735000000001
-2.614468,-12.47858,-0.512359
-2.173935,-6.17704,-4.707
-2.557007,-7.996633,0.526724
-0.814029,-3.217807,2.624045
2.5378540000000003,-8.408437,0.277727
2.494758,-5.980716,2.312799
-2.351106,-14.432248,-0.972046
6.540959,-10.903194,-2.03986
5.214572,-10.749966,-6.234501
4.644751,-12.392388,-1.211466
5.923255,-13.977348999999998,-7.785944000000001
5.33907,-9.495404,0.632069
-2.389413,-4.831499,0.938527
-0.21069,-8.872911,0.0430959999999999
1.7573439999999998,-12.737153,-2.384625
0.162806,-2.15957,19.589357
3.974375,-12.349293,-2.097321
7.527369999999999,-20.058622,-16.682798000000002
0.6608,-9.65821,-0.995988
-1.264138,-2.442086,1.407791
-2.964022,-9.203311,-0.967257
-1.556231,-3.122039,1.958457
-4.721366000000001,-8.781932000000001,0.311246
-5.837064,-17.606958,-0.02873
-2.542642,3.423709,21.648373
4.276045,-13.618219,0.1723829999999999
2.767697,-19.268536,-26.3027
-0.871489,-9.80665,-3.428497
-1.599327,-3.878607,3.246538
-5.152322,-9.255983,-1.23062
-9.504981,-17.650055,-0.7661439999999999
-3.045424,-8.494628,-0.8236049999999999
-6.8522050000000005,-15.5671,-1.268927
-7.029375999999999,1.364695,5.013458999999999
0.555455,-10.874464,23.582888
-9.155427,-11.654974,-1.388637
-6.660669,5.214572,-2.8155810000000003
-1.848324,-12.65575,-3.65834
-7.278372999999999,-14.686032999999998,-10.065224
-3.5960910000000004,-9.016563,-1.484405
-2.37026,-1.192312,3.055001
-5.473145,-6.517017,-0.713472
-5.061342,-11.808203,-2.5378540000000003
-2.743755,1.244985,-0.440533
-3.2321720000000003,-13.469779,-2.446874
-4.285621,8.073248,2.9257150000000003
-1.388637,-12.990938,-2.394202
-7.206547,-15.710752,-13.814544
-1.666364,-8.820239,-1.565808
-2.394202,-1.335964,2.48997
-4.151545,-8.657434,-1.383848
-5.45878,-11.913548,-2.451662
-7.120356,6.713342,3.098097
-4.19943,-13.292608,-3.888183
-3.691859,5.530606,0.565032
-4.094085,-11.932701,-1.915361
-2.686294,-6.038176,-6.574477000000001
-2.494758,-7.268796000000001,3.495535
-0.751779,-4.189853,2.049437
-7.934384,-6.133945,0.186748
-9.849746,-15.380351999999998,-1.086968
-0.8762780000000001,5.602432,2.212242
-3.05979,-17.0946,-3.318364
-3.160346,-8.580819,-4.089296
-14.298173,-16.069881,-19.67555
-4.19943,-13.613431,-3.610456
-8.192958,-14.781801000000002,-15.102624
-4.46758,-8.169016000000001,-0.770933
-3.74932,-2.662352,2.456451
-6.574477000000001,-7.958326,-0.397437
-8.863335000000001,-12.646173,-1.144428
2.106898,7.824250999999999,9.198523
-1.182736,-12.047623,-0.756568
-14.69561,-25.809494,-10.534488
-1.201889,-11.851298,-0.134075
-2.145205,-4.170699,-1.450886
-1.7525560000000002,-7.833828,-1.838747
-1.7046720000000002,-10.271125,-1.312023
-3.466804,-17.769766,3.452439
-0.593762,-15.083470000000002,-2.987964
-7.015011,-17.956512,-15.2367
-0.814029,-13.752295000000002,-4.050989
-5.96635,-11.453861,-13.479356
1.197101,-11.03727,-3.615245
-2.633622,-3.08852,1.13964
-4.7788260000000005,-8.853758000000001,-0.933739
-6.775591,-15.102624,3.342306
-7.082048,-10.639832,-7.541735000000001
-2.614468,-12.47858,-0.512359
-2.173935,-6.17704,-4.707
-2.557007,-7.996633,0.526724
-0.814029,-3.217807,2.624045
-6.574477000000001,-6.976703,-1.01993
-0.991199,-5.655104,-0.435745
-8.192958,-14.781801000000002,-15.102624
-4.46758,-8.169016000000001,-0.770933
-3.74932,-2.662352,2.456451
-6.574477000000001,-7.958326,-0.397437
-8.863335000000001,-12.646173,-1.144428
2.106898,7.824250999999999,9.198523
-1.182736,-12.047623,-0.756568
-14.69561,-25.809494,-10.534488
-1.201889,-11.851298,-0.134075
-2.145205,-4.170699,-1.450886
-1.7525560000000002,-7.833828,-1.838747
-1.7046720000000002,-10.271125,-1.312023
-3.466804,-17.769766,3.452439
-0.593762,-15.083470000000002,-2.987964
-7.015011,-17.956512,-15.2367
-0.814029,-13.752295000000002,-4.050989
-5.96635,-11.453861,-13.479356
1.197101,-11.03727,-3.615245
-2.633622,-3.08852,1.13964
-4.7788260000000005,-8.853758000000001,-0.933739
-6.775591,-15.102624,3.342306
-7.082048,-10.639832,-7.541735000000001
-2.614468,-12.47858,-0.512359
-2.173935,-6.17704,-4.707
-2.557007,-7.996633,0.526724
-0.814029,-3.217807,2.624045
-6.574477000000001,-6.976703,-1.01993
-0.991199,-5.655104,-0.435745
-1.690306,-9.801862,-1.091756
-0.287304,-12.890382,-2.475604
-3.74932,-2.662352,2.456451
-6.574477000000001,-7.958326,-0.397437
-8.863335000000001,-12.646173,-1.144428
2.106898,7.824250999999999,9.198523
-1.182736,-12.047623,-0.756568
-14.69561,-25.809494,-10.534488
-1.201889,-11.851298,-0.134075
-2.145205,-4.170699,-1.450886
-1.7525560000000002,-7.833828,-1.838747
-1.7046720000000002,-10.271125,-1.312023
-3.466804,-17.769766,3.452439
-0.593762,-15.083470000000002,-2.987964
-7.015011,-17.956512,-15.2367
-0.814029,-13.752295000000002,-4.050989
-5.96635,-11.453861,-13.479356
1.197101,-11.03727,-3.615245
-2.633622,-3.08852,1.13964
-4.7788260000000005,-8.853758000000001,-0.933739
-6.775591,-15.102624,3.342306
-7.082048,-10.639832,-7.541735000000001
-2.614468,-12.47858,-0.512359
-2.173935,-6.17704,-4.707
-2.557007,-7.996633,0.526724
-0.814029,-3.217807,2.624045
-6.574477000000001,-6.976703,-1.01993
-0.991199,-5.655104,-0.435745
-1.690306,-9.801862,-1.091756
-0.287304,-12.890382,-2.475604
-9.868899,-13.728353,-19.977219
-3.998317,-8.078036,1.249773
-8.863335000000001,-12.646173,-1.144428
2.106898,7.824250999999999,9.198523
-1.182736,-12.047623,-0.756568
-14.69561,-25.809494,-10.534488
-1.201889,-11.851298,-0.134075
-2.145205,-4.170699,-1.450886
-1.7525560000000002,-7.833828,-1.838747
-1.7046720000000002,-10.271125,-1.312023
-3.466804,-17.769766,3.452439
-0.593762,-15.083470000000002,-2.987964
-7.015011,-17.956512,-15.2367
-0.814029,-13.752295000000002,-4.050989
-5.96635,-11.453861,-13.479356
1.197101,-11.03727,-3.615245
-2.633622,-3.08852,1.13964
-4.7788260000000005,-8.853758000000001,-0.933739
-6.775591,-15.102624,3.342306
-7.082048,-10.639832,-7.541735000000001
-2.614468,-12.47858,-0.512359
-2.173935,-6.17704,-4.707
-2.557007,-7.996633,0.526724
-0.814029,-3.217807,2.624045
-6.574477000000001,-6.976703,-1.01993
-0.991199,-5.655104,-0.435745
-1.690306,-9.801862,-1.091756
-0.287304,-12.890382,-2.475604
-9.868899,-13.728353,-19.977219
-3.998317,-8.078036,1.249773
-1.029507,-4.754884,1.929727
-0.105345,-8.015787,2.676718
-1.182736,-12.047623,-0.756568
-14.69561,-25.809494,-10.534488
-1.201889,-11.851298,-0.134075
-2.145205,-4.170699,-1.450886
-1.7525560000000002,-7.833828,-1.838747
-1.7046720000000002,-10.271125,-1.312023
-3.466804,-17.769766,3.452439
-0.593762,-15.083470000000002,-2.987964
-7.015011,-17.956512,-15.2367
-0.814029,-13.752295000000002,-4.050989
-5.96635,-11.453861,-13.479356
1.197101,-11.03727,-3.615245
-2.633622,-3.08852,1.13964
-4.7788260000000005,-8.853758000000001,-0.933739
-6.775591,-15.102624,3.342306
-7.082048,-10.639832,-7.541735000000001
-2.614468,-12.47858,-0.512359
-2.173935,-6.17704,-4.707
-2.557007,-7.996633,0.526724
-0.814029,-3.217807,2.624045
-6.574477000000001,-6.976703,-1.01993
-0.991199,-5.655104,-0.435745
-1.690306,-9.801862,-1.091756
-0.287304,-12.890382,-2.475604
-9.868899,-13.728353,-19.977219
-3.998317,-8.078036,1.249773
-1.029507,-4.754884,1.929727
-0.105345,-8.015787,2.676718
