accelerometer_X,accelerometer_Y,accelerometer_Z
6.7277070000000005,2.973599,3.936068
7.891288999999999,0.440533,-3.342306
6.301539,-1.154005,0.067038
4.534618,-5.755661,-1.369483
4.563349,-3.730166000000001,-0.02873
-0.972046,-6.660669,-2.954445
-2.8682540000000003,-5.4970870000000005,0.23942
2.767697,-4.932055,0.110133
2.470816,-7.718906,2.949657
4.941633,-6.833050999999999,-1.6998830000000005
1.1683709999999998,-9.816227,1.910573
8.073248,-5.856217,-1.359906
3.366248,-16.82645,1.1683709999999998
7.015011,-16.845604,-7.517792999999999
4.697424,-9.074024,-0.866701
-1.5466540000000002,-1.508347,0.3304
3.830723,-12.014104,-1.158794
2.418144,-9.002198,0.8236049999999999
3.529053,-7.436389999999999,1.905785
0.986411,-17.3005,-0.3830719999999999
-4.582502,-7.862558,9.792285
1.910573,-5.985504,-1.599327
4.458004,-6.914453999999999,-5.401319
2.475605,-8.705316999999999,-0.3734949999999999
-1.120486,-5.803545,2.044648
-2.39899,-8.451532,4.055778
5.64074,-8.566454,1.029507
-0.8283940000000001,-0.483629,10.582372
4.491523,-7.393294999999999,-1.58975
4.97994,-10.127473,-14.422671
3.529053,-7.436389999999999,1.905785
0.986411,-17.3005,-0.3830719999999999
-4.582502,-7.862558,9.792285
1.910573,-5.985504,-1.599327
4.458004,-6.914453999999999,-5.401319
2.475605,-8.705316999999999,-0.3734949999999999
-1.120486,-5.803545,2.044648
-2.39899,-8.451532,4.055778
5.64074,-8.566454,1.029507
-0.8283940000000001,-0.483629,10.582372
4.491523,-7.393294999999999,-1.58975
4.97994,-10.127473,-14.422671
1.106121,-7.115567,2.240973
1.355118,-8.667010000000001,1.479617
2.149993,-7.474697,5.93762
8.288725999999999,-10.783484,-3.165135
-0.991199,-19.416977,4.074930999999999
7.062895,-8.063671000000001,-0.972046
0.766145,-4.788403,-0.981623
0.02873,-6.545747,-0.6464340000000001
6.952762,-11.247959,0.344765
6.895301,-13.982138,-2.504335
-1.417367,-19.349937,0.177171
0.320823,-3.715801,-9.653421
-4.649539,-15.05474,1.192313
4.242526,-16.539145,-10.836157
6.789956,-6.947972999999999,-3.007117
0.933739,-4.606444000000001,-0.512359
3.2896330000000003,-7.469908999999999,-0.0430959999999999
-1.6519990000000002,-17.535133,-2.2505490000000004
-2.269703,-2.782062,2.39899
1.479617,-9.251195,-0.857124
5.152323,-11.702858,-2.27928
1.637634,-22.720974,-10.491392
-2.346318,-3.270479,1.063026
-1.685518,-7.580042,-1.623269
-1.80044,-7.465121000000001,-3.069367
-0.124498,-12.559982000000002,6.7516490000000005
1.7525560000000002,-17.501614,-3.801992
2.331953,-9.744401,-7.407660000000001
3.222596,-8.920795,-3.08852
-3.457227,-2.715025,0.148441
2.264915,-9.931149,-4.659116
0.9912,-10.903194,-8.183380999999999
2.226608,-8.044516999999999,-2.341529
-1.647211,-11.851298,6.775591
8.39886,-13.771448,-2.566584
2.494758,-10.328587,-8.690952000000001
0.8236049999999999,-7.383717999999999,-3.5960910000000004
-6.224924,-12.23437,-26.230873
1.273715,-6.502651,-3.572149
0.7230489999999999,-6.871359,-4.079719
2.226608,-7.575253999999999,-12.555194
3.284845,-11.96622,-3.892972
3.945645,-11.760319,-8.09719
2.801216,-9.32781,-5.133168
-1.35033,-3.380613,-0.057461
-0.253785,-6.373365,0.205901
-1.608903,-6.502651,-3.998317
1.685518,-10.146626,-1.115698
5.152323,-11.702858,-2.27928
1.637634,-22.720974,-10.491392
-2.346318,-3.270479,1.063026
-1.685518,-7.580042,-1.623269
-1.80044,-7.465121000000001,-3.069367
-0.124498,-12.559982000000002,6.7516490000000005
1.7525560000000002,-17.501614,-3.801992
2.331953,-9.744401,-7.407660000000001
3.222596,-8.920795,-3.08852
-3.457227,-2.715025,0.148441
2.264915,-9.931149,-4.659116
0.9912,-10.903194,-8.183380999999999
2.226608,-8.044516999999999,-2.341529
-1.647211,-11.851298,6.775591
8.39886,-13.771448,-2.566584
2.494758,-10.328587,-8.690952000000001
0.8236049999999999,-7.383717999999999,-3.5960910000000004
-6.224924,-12.23437,-26.230873
1.273715,-6.502651,-3.572149
0.7230489999999999,-6.871359,-4.079719
2.226608,-7.575253999999999,-12.555194
3.284845,-11.96622,-3.892972
3.945645,-11.760319,-8.09719
2.801216,-9.32781,-5.133168
-1.35033,-3.380613,-0.057461
-0.253785,-6.373365,0.205901
-1.608903,-6.502651,-3.998317
1.685518,-10.146626,-1.115698
-0.474052,-4.13718,-1.249773
-0.761356,-9.203311,-2.178723
-2.346318,-3.270479,1.063026
-1.685518,-7.580042,-1.623269
-1.80044,-7.465121000000001,-3.069367
-0.124498,-12.559982000000002,6.7516490000000005
1.7525560000000002,-17.501614,-3.801992
2.331953,-9.744401,-7.407660000000001
3.222596,-8.920795,-3.08852
-3.457227,-2.715025,0.148441
2.264915,-9.931149,-4.659116
0.9912,-10.903194,-8.183380999999999
2.226608,-8.044516999999999,-2.341529
-1.647211,-11.851298,6.775591
8.39886,-13.771448,-2.566584
2.494758,-10.328587,-8.690952000000001
0.8236049999999999,-7.383717999999999,-3.5960910000000004
-6.224924,-12.23437,-26.230873
1.273715,-6.502651,-3.572149
0.7230489999999999,-6.871359,-4.079719
2.226608,-7.575253999999999,-12.555194
3.284845,-11.96622,-3.892972
3.945645,-11.760319,-8.09719
2.801216,-9.32781,-5.133168
-1.35033,-3.380613,-0.057461
-0.253785,-6.373365,0.205901
-1.608903,-6.502651,-3.998317
1.685518,-10.146626,-1.115698
-0.474052,-4.13718,-1.249773
-0.761356,-9.203311,-2.178723
-1.278504,-4.1419690000000005,0.253785
-0.3304,-6.105214,-3.284845
-1.80044,-7.465121000000001,-3.069367
-0.124498,-12.559982000000002,6.7516490000000005
1.7525560000000002,-17.501614,-3.801992
2.331953,-9.744401,-7.407660000000001
3.222596,-8.920795,-3.08852
-3.457227,-2.715025,0.148441
2.264915,-9.931149,-4.659116
0.9912,-10.903194,-8.183380999999999
2.226608,-8.044516999999999,-2.341529
-1.647211,-11.851298,6.775591
8.39886,-13.771448,-2.566584
2.494758,-10.328587,-8.690952000000001
0.8236049999999999,-7.383717999999999,-3.5960910000000004
-6.224924,-12.23437,-26.230873
1.273715,-6.502651,-3.572149
0.7230489999999999,-6.871359,-4.079719
2.226608,-7.575253999999999,-12.555194
3.284845,-11.96622,-3.892972
3.945645,-11.760319,-8.09719
2.801216,-9.32781,-5.133168
-1.35033,-3.380613,-0.057461
-0.253785,-6.373365,0.205901
-1.608903,-6.502651,-3.998317
1.685518,-10.146626,-1.115698
-0.474052,-4.13718,-1.249773
-0.761356,-9.203311,-2.178723
-1.278504,-4.1419690000000005,0.253785
-0.3304,-6.105214,-3.284845
1.455675,-7.479486,-3.864241
1.613692,-9.150639,-4.151545
1.7525560000000002,-17.501614,-3.801992
2.331953,-9.744401,-7.407660000000001
3.222596,-8.920795,-3.08852
-3.457227,-2.715025,0.148441
2.264915,-9.931149,-4.659116
0.9912,-10.903194,-8.183380999999999
2.226608,-8.044516999999999,-2.341529
-1.647211,-11.851298,6.775591
8.39886,-13.771448,-2.566584
2.494758,-10.328587,-8.690952000000001
0.8236049999999999,-7.383717999999999,-3.5960910000000004
-6.224924,-12.23437,-26.230873
1.273715,-6.502651,-3.572149
0.7230489999999999,-6.871359,-4.079719
2.226608,-7.575253999999999,-12.555194
3.284845,-11.96622,-3.892972
3.945645,-11.760319,-8.09719
2.801216,-9.32781,-5.133168
-1.35033,-3.380613,-0.057461
-0.253785,-6.373365,0.205901
-1.608903,-6.502651,-3.998317
1.685518,-10.146626,-1.115698
-0.474052,-4.13718,-1.249773
-0.761356,-9.203311,-2.178723
-1.278504,-4.1419690000000005,0.253785
-0.3304,-6.105214,-3.284845
1.455675,-7.479486,-3.864241
1.613692,-9.150639,-4.151545
1.216255,-9.792285,0.636858
-2.54743,-7.086836999999999,-2.585738
3.222596,-8.920795,-3.08852
-3.457227,-2.715025,0.148441
2.264915,-9.931149,-4.659116
0.9912,-10.903194,-8.183380999999999
2.226608,-8.044516999999999,-2.341529
-1.647211,-11.851298,6.775591
8.39886,-13.771448,-2.566584
2.494758,-10.328587,-8.690952000000001
0.8236049999999999,-7.383717999999999,-3.5960910000000004
-6.224924,-12.23437,-26.230873
1.273715,-6.502651,-3.572149
0.7230489999999999,-6.871359,-4.079719
2.226608,-7.575253999999999,-12.555194
3.284845,-11.96622,-3.892972
3.945645,-11.760319,-8.09719
2.801216,-9.32781,-5.133168
-1.35033,-3.380613,-0.057461
-0.253785,-6.373365,0.205901
-1.608903,-6.502651,-3.998317
1.685518,-10.146626,-1.115698
-0.474052,-4.13718,-1.249773
-0.761356,-9.203311,-2.178723
-1.278504,-4.1419690000000005,0.253785
-0.3304,-6.105214,-3.284845
1.455675,-7.479486,-3.864241
1.613692,-9.150639,-4.151545
1.216255,-9.792285,0.636858
-2.54743,-7.086836999999999,-2.585738
-1.206678,-9.433155,-2.202665
-3.102885,-4.644751,-2.456451
2.264915,-9.931149,-4.659116
0.9912,-10.903194,-8.183380999999999
2.226608,-8.044516999999999,-2.341529
-1.647211,-11.851298,6.775591
8.39886,-13.771448,-2.566584
2.494758,-10.328587,-8.690952000000001
0.8236049999999999,-7.383717999999999,-3.5960910000000004
-6.224924,-12.23437,-26.230873
1.273715,-6.502651,-3.572149
0.7230489999999999,-6.871359,-4.079719
2.226608,-7.575253999999999,-12.555194
3.284845,-11.96622,-3.892972
3.945645,-11.760319,-8.09719
2.801216,-9.32781,-5.133168
-1.35033,-3.380613,-0.057461
-0.253785,-6.373365,0.205901
-1.608903,-6.502651,-3.998317
1.685518,-10.146626,-1.115698
-0.474052,-4.13718,-1.249773
-0.761356,-9.203311,-2.178723
-1.278504,-4.1419690000000005,0.253785
-0.3304,-6.105214,-3.284845
1.455675,-7.479486,-3.864241
1.613692,-9.150639,-4.151545
1.216255,-9.792285,0.636858
-2.54743,-7.086836999999999,-2.585738
-1.206678,-9.433155,-2.202665
-3.102885,-4.644751,-2.456451
0.282516,-9.251195,-0.933739
-3.20823,-4.711789,0.885855
2.226608,-8.044516999999999,-2.341529
-1.647211,-11.851298,6.775591
8.39886,-13.771448,-2.566584
2.494758,-10.328587,-8.690952000000001
0.8236049999999999,-7.383717999999999,-3.5960910000000004
-6.224924,-12.23437,-26.230873
1.273715,-6.502651,-3.572149
0.7230489999999999,-6.871359,-4.079719
2.226608,-7.575253999999999,-12.555194
3.284845,-11.96622,-3.892972
3.945645,-11.760319,-8.09719
2.801216,-9.32781,-5.133168
-1.35033,-3.380613,-0.057461
-0.253785,-6.373365,0.205901
-1.608903,-6.502651,-3.998317
1.685518,-10.146626,-1.115698
-0.474052,-4.13718,-1.249773
-0.761356,-9.203311,-2.178723
-1.278504,-4.1419690000000005,0.253785
-0.3304,-6.105214,-3.284845
1.455675,-7.479486,-3.864241
1.613692,-9.150639,-4.151545
1.216255,-9.792285,0.636858
-2.54743,-7.086836999999999,-2.585738
-1.206678,-9.433155,-2.202665
-3.102885,-4.644751,-2.456451
0.282516,-9.251195,-0.933739
-3.20823,-4.711789,0.885855
2.418144,-8.571242,-1.675941
-5.861006,-6.397307,-3.375824
8.39886,-13.771448,-2.566584
2.494758,-10.328587,-8.690952000000001
0.8236049999999999,-7.383717999999999,-3.5960910000000004
-6.224924,-12.23437,-26.230873
1.273715,-6.502651,-3.572149
0.7230489999999999,-6.871359,-4.079719
2.226608,-7.575253999999999,-12.555194
3.284845,-11.96622,-3.892972
3.945645,-11.760319,-8.09719
2.801216,-9.32781,-5.133168
-1.35033,-3.380613,-0.057461
-0.253785,-6.373365,0.205901
-1.608903,-6.502651,-3.998317
1.685518,-10.146626,-1.115698
-0.474052,-4.13718,-1.249773
-0.761356,-9.203311,-2.178723
-1.278504,-4.1419690000000005,0.253785
-0.3304,-6.105214,-3.284845
1.455675,-7.479486,-3.864241
1.613692,-9.150639,-4.151545
1.216255,-9.792285,0.636858
-2.54743,-7.086836999999999,-2.585738
-1.206678,-9.433155,-2.202665
-3.102885,-4.644751,-2.456451
0.282516,-9.251195,-0.933739
-3.20823,-4.711789,0.885855
2.418144,-8.571242,-1.675941
-5.861006,-6.397307,-3.375824
2.959233,-6.081272,-3.136404
-7.805097,-8.365341,-2.130839
0.8236049999999999,-7.383717999999999,-3.5960910000000004
-6.224924,-12.23437,-26.230873
1.273715,-6.502651,-3.572149
0.7230489999999999,-6.871359,-4.079719
2.226608,-7.575253999999999,-12.555194
3.284845,-11.96622,-3.892972
3.945645,-11.760319,-8.09719
2.801216,-9.32781,-5.133168
-1.35033,-3.380613,-0.057461
-0.253785,-6.373365,0.205901
-1.608903,-6.502651,-3.998317
1.685518,-10.146626,-1.115698
-0.474052,-4.13718,-1.249773
-0.761356,-9.203311,-2.178723
-1.278504,-4.1419690000000005,0.253785
-0.3304,-6.105214,-3.284845
1.455675,-7.479486,-3.864241
1.613692,-9.150639,-4.151545
1.216255,-9.792285,0.636858
-2.54743,-7.086836999999999,-2.585738
-1.206678,-9.433155,-2.202665
-3.102885,-4.644751,-2.456451
0.282516,-9.251195,-0.933739
-3.20823,-4.711789,0.885855
2.418144,-8.571242,-1.675941
-5.861006,-6.397307,-3.375824
2.959233,-6.081272,-3.136404
-7.805097,-8.365341,-2.130839
-0.842759,-6.119579,-1.61848
-1.814805,-7.259219,-1.043872
-4.582502,-7.862558,9.792285
1.910573,-5.985504,-1.599327
4.458004,-6.914453999999999,-5.401319
2.475605,-8.705316999999999,-0.3734949999999999
-1.120486,-5.803545,2.044648
-2.39899,-8.451532,4.055778
5.64074,-8.566454,1.029507
-0.8283940000000001,-0.483629,10.582372
4.491523,-7.393294999999999,-1.58975
4.97994,-10.127473,-14.422671
1.106121,-7.115567,2.240973
1.355118,-8.667010000000001,1.479617
2.149993,-7.474697,5.93762
8.288725999999999,-10.783484,-3.165135
-0.991199,-19.416977,4.074930999999999
7.062895,-8.063671000000001,-0.972046
0.766145,-4.788403,-0.981623
0.02873,-6.545747,-0.6464340000000001
6.952762,-11.247959,0.344765
6.895301,-13.982138,-2.504335
-1.417367,-19.349937,0.177171
0.320823,-3.715801,-9.653421
-4.649539,-15.05474,1.192313
4.242526,-16.539145,-10.836157
6.789956,-6.947972999999999,-3.007117
0.933739,-4.606444000000001,-0.512359
3.2896330000000003,-7.469908999999999,-0.0430959999999999
-1.6519990000000002,-17.535133,-2.2505490000000004
-6.320692,-6.196194,1.896208
-1.331176,-17.956512,-0.632069
1.273715,-6.502651,-3.572149
0.7230489999999999,-6.871359,-4.079719
2.226608,-7.575253999999999,-12.555194
3.284845,-11.96622,-3.892972
3.945645,-11.760319,-8.09719
2.801216,-9.32781,-5.133168
-1.35033,-3.380613,-0.057461
-0.253785,-6.373365,0.205901
-1.608903,-6.502651,-3.998317
1.685518,-10.146626,-1.115698
-0.474052,-4.13718,-1.249773
-0.761356,-9.203311,-2.178723
-1.278504,-4.1419690000000005,0.253785
-0.3304,-6.105214,-3.284845
1.455675,-7.479486,-3.864241
1.613692,-9.150639,-4.151545
1.216255,-9.792285,0.636858
-2.54743,-7.086836999999999,-2.585738
-1.206678,-9.433155,-2.202665
-3.102885,-4.644751,-2.456451
0.282516,-9.251195,-0.933739
-3.20823,-4.711789,0.885855
2.418144,-8.571242,-1.675941
-5.861006,-6.397307,-3.375824
2.959233,-6.081272,-3.136404
-7.805097,-8.365341,-2.130839
-0.842759,-6.119579,-1.61848
-1.814805,-7.259219,-1.043872
-0.617704,-6.301539,-1.067814
-1.685518,-8.403648,0.550666
2.226608,-7.575253999999999,-12.555194
3.284845,-11.96622,-3.892972
3.945645,-11.760319,-8.09719
2.801216,-9.32781,-5.133168
-1.35033,-3.380613,-0.057461
-0.253785,-6.373365,0.205901
-1.608903,-6.502651,-3.998317
1.685518,-10.146626,-1.115698
-0.474052,-4.13718,-1.249773
-0.761356,-9.203311,-2.178723
-1.278504,-4.1419690000000005,0.253785
-0.3304,-6.105214,-3.284845
1.455675,-7.479486,-3.864241
1.613692,-9.150639,-4.151545
1.216255,-9.792285,0.636858
-2.54743,-7.086836999999999,-2.585738
-1.206678,-9.433155,-2.202665
-3.102885,-4.644751,-2.456451
0.282516,-9.251195,-0.933739
-3.20823,-4.711789,0.885855
2.418144,-8.571242,-1.675941
-5.861006,-6.397307,-3.375824
2.959233,-6.081272,-3.136404
-7.805097,-8.365341,-2.130839
-0.842759,-6.119579,-1.61848
-1.814805,-7.259219,-1.043872
-0.617704,-6.301539,-1.067814
-1.685518,-8.403648,0.550666
2.48997,-15.964537,-0.8379709999999999
-0.483629,-15.078682,-6.253655
3.945645,-11.760319,-8.09719
2.801216,-9.32781,-5.133168
-1.35033,-3.380613,-0.057461
-0.253785,-6.373365,0.205901
-1.608903,-6.502651,-3.998317
1.685518,-10.146626,-1.115698
-0.474052,-4.13718,-1.249773
-0.761356,-9.203311,-2.178723
-1.278504,-4.1419690000000005,0.253785
-0.3304,-6.105214,-3.284845
1.455675,-7.479486,-3.864241
1.613692,-9.150639,-4.151545
1.216255,-9.792285,0.636858
-2.54743,-7.086836999999999,-2.585738
-1.206678,-9.433155,-2.202665
-3.102885,-4.644751,-2.456451
0.282516,-9.251195,-0.933739
-3.20823,-4.711789,0.885855
2.418144,-8.571242,-1.675941
-5.861006,-6.397307,-3.375824
2.959233,-6.081272,-3.136404
-7.805097,-8.365341,-2.130839
-0.842759,-6.119579,-1.61848
-1.814805,-7.259219,-1.043872
-0.617704,-6.301539,-1.067814
-1.685518,-8.403648,0.550666
2.48997,-15.964537,-0.8379709999999999
-0.483629,-15.078682,-6.253655
-2.633622,-17.927782,-5.453991
-2.312799,-15.825673000000002,9.706094
-1.35033,-3.380613,-0.057461
-0.253785,-6.373365,0.205901
-1.608903,-6.502651,-3.998317
1.685518,-10.146626,-1.115698
-0.474052,-4.13718,-1.249773
-0.761356,-9.203311,-2.178723
-1.278504,-4.1419690000000005,0.253785
-0.3304,-6.105214,-3.284845
1.455675,-7.479486,-3.864241
1.613692,-9.150639,-4.151545
1.216255,-9.792285,0.636858
-2.54743,-7.086836999999999,-2.585738
-1.206678,-9.433155,-2.202665
-3.102885,-4.644751,-2.456451
0.282516,-9.251195,-0.933739
-3.20823,-4.711789,0.885855
2.418144,-8.571242,-1.675941
-5.861006,-6.397307,-3.375824
2.959233,-6.081272,-3.136404
-7.805097,-8.365341,-2.130839
-0.842759,-6.119579,-1.61848
-1.814805,-7.259219,-1.043872
-0.617704,-6.301539,-1.067814
-1.685518,-8.403648,0.550666
2.48997,-15.964537,-0.8379709999999999
-0.483629,-15.078682,-6.253655
-2.633622,-17.927782,-5.453991
-2.312799,-15.825673000000002,9.706094
-0.6272810000000001,-14.772224,-5.3821650000000005
2.466028,-6.856992999999999,-4.477157
-1.608903,-6.502651,-3.998317
1.685518,-10.146626,-1.115698
-0.474052,-4.13718,-1.249773
-0.761356,-9.203311,-2.178723
-1.278504,-4.1419690000000005,0.253785
-0.3304,-6.105214,-3.284845
1.455675,-7.479486,-3.864241
1.613692,-9.150639,-4.151545
1.216255,-9.792285,0.636858
-2.54743,-7.086836999999999,-2.585738
-1.206678,-9.433155,-2.202665
-3.102885,-4.644751,-2.456451
0.282516,-9.251195,-0.933739
-3.20823,-4.711789,0.885855
2.418144,-8.571242,-1.675941
-5.861006,-6.397307,-3.375824
2.959233,-6.081272,-3.136404
-7.805097,-8.365341,-2.130839
-0.842759,-6.119579,-1.61848
-1.814805,-7.259219,-1.043872
-0.617704,-6.301539,-1.067814
-1.685518,-8.403648,0.550666
2.48997,-15.964537,-0.8379709999999999
-0.483629,-15.078682,-6.253655
-2.633622,-17.927782,-5.453991
-2.312799,-15.825673000000002,9.706094
-0.6272810000000001,-14.772224,-5.3821650000000005
2.466028,-6.856992999999999,-4.477157
-4.67827,-6.397307,-3.993528
-1.838747,-9.935937,-3.1076740000000003
-0.474052,-4.13718,-1.249773
-0.761356,-9.203311,-2.178723
-1.278504,-4.1419690000000005,0.253785
-0.3304,-6.105214,-3.284845
1.455675,-7.479486,-3.864241
1.613692,-9.150639,-4.151545
1.216255,-9.792285,0.636858
-2.54743,-7.086836999999999,-2.585738
-1.206678,-9.433155,-2.202665
-3.102885,-4.644751,-2.456451
0.282516,-9.251195,-0.933739
-3.20823,-4.711789,0.885855
2.418144,-8.571242,-1.675941
-5.861006,-6.397307,-3.375824
2.959233,-6.081272,-3.136404
-7.805097,-8.365341,-2.130839
-0.842759,-6.119579,-1.61848
-1.814805,-7.259219,-1.043872
-0.617704,-6.301539,-1.067814
-1.685518,-8.403648,0.550666
2.48997,-15.964537,-0.8379709999999999
-0.483629,-15.078682,-6.253655
-2.633622,-17.927782,-5.453991
-2.312799,-15.825673000000002,9.706094
-0.6272810000000001,-14.772224,-5.3821650000000005
2.466028,-6.856992999999999,-4.477157
-4.67827,-6.397307,-3.993528
-1.838747,-9.935937,-3.1076740000000003
0.325611,-8.619126,-3.4428620000000003
-2.604891,-4.180276,-2.652775
-1.278504,-4.1419690000000005,0.253785
-0.3304,-6.105214,-3.284845
1.455675,-7.479486,-3.864241
1.613692,-9.150639,-4.151545
1.216255,-9.792285,0.636858
-2.54743,-7.086836999999999,-2.585738
-1.206678,-9.433155,-2.202665
-3.102885,-4.644751,-2.456451
0.282516,-9.251195,-0.933739
-3.20823,-4.711789,0.885855
2.418144,-8.571242,-1.675941
-5.861006,-6.397307,-3.375824
2.959233,-6.081272,-3.136404
-7.805097,-8.365341,-2.130839
-0.842759,-6.119579,-1.61848
-1.814805,-7.259219,-1.043872
-0.617704,-6.301539,-1.067814
-1.685518,-8.403648,0.550666
2.48997,-15.964537,-0.8379709999999999
-0.483629,-15.078682,-6.253655
-2.633622,-17.927782,-5.453991
-2.312799,-15.825673000000002,9.706094
-0.6272810000000001,-14.772224,-5.3821650000000005
2.466028,-6.856992999999999,-4.477157
-4.67827,-6.397307,-3.993528
-1.838747,-9.935937,-3.1076740000000003
0.325611,-8.619126,-3.4428620000000003
-2.604891,-4.180276,-2.652775
-2.700659,-13.340492,-3.912125
1.642422,-8.130708,-8.681376
1.455675,-7.479486,-3.864241
1.613692,-9.150639,-4.151545
1.216255,-9.792285,0.636858
-2.54743,-7.086836999999999,-2.585738
-1.206678,-9.433155,-2.202665
-3.102885,-4.644751,-2.456451
0.282516,-9.251195,-0.933739
-3.20823,-4.711789,0.885855
2.418144,-8.571242,-1.675941
-5.861006,-6.397307,-3.375824
2.959233,-6.081272,-3.136404
-7.805097,-8.365341,-2.130839
-0.842759,-6.119579,-1.61848
-1.814805,-7.259219,-1.043872
-0.617704,-6.301539,-1.067814
-1.685518,-8.403648,0.550666
2.48997,-15.964537,-0.8379709999999999
-0.483629,-15.078682,-6.253655
-2.633622,-17.927782,-5.453991
-2.312799,-15.825673000000002,9.706094
-0.6272810000000001,-14.772224,-5.3821650000000005
2.466028,-6.856992999999999,-4.477157
-4.67827,-6.397307,-3.993528
-1.838747,-9.935937,-3.1076740000000003
0.325611,-8.619126,-3.4428620000000003
-2.604891,-4.180276,-2.652775
-2.700659,-13.340492,-3.912125
1.642422,-8.130708,-8.681376
2.930503,-8.51857,-2.236184
-0.943315,-0.943315,0.842759
1.216255,-9.792285,0.636858
-2.54743,-7.086836999999999,-2.585738
-1.206678,-9.433155,-2.202665
-3.102885,-4.644751,-2.456451
0.282516,-9.251195,-0.933739
-3.20823,-4.711789,0.885855
2.418144,-8.571242,-1.675941
-5.861006,-6.397307,-3.375824
2.959233,-6.081272,-3.136404
-7.805097,-8.365341,-2.130839
-0.842759,-6.119579,-1.61848
-1.814805,-7.259219,-1.043872
-0.617704,-6.301539,-1.067814
-1.685518,-8.403648,0.550666
2.48997,-15.964537,-0.8379709999999999
-0.483629,-15.078682,-6.253655
-2.633622,-17.927782,-5.453991
-2.312799,-15.825673000000002,9.706094
-0.6272810000000001,-14.772224,-5.3821650000000005
2.466028,-6.856992999999999,-4.477157
-4.67827,-6.397307,-3.993528
-1.838747,-9.935937,-3.1076740000000003
0.325611,-8.619126,-3.4428620000000003
-2.604891,-4.180276,-2.652775
-2.700659,-13.340492,-3.912125
1.642422,-8.130708,-8.681376
2.930503,-8.51857,-2.236184
-0.943315,-0.943315,0.842759
-0.057461,-7.536947,-3.112462
-2.240973,-4.735731,-0.8044520000000001
-1.206678,-9.433155,-2.202665
-3.102885,-4.644751,-2.456451
0.282516,-9.251195,-0.933739
-3.20823,-4.711789,0.885855
2.418144,-8.571242,-1.675941
-5.861006,-6.397307,-3.375824
2.959233,-6.081272,-3.136404
-7.805097,-8.365341,-2.130839
-0.842759,-6.119579,-1.61848
-1.814805,-7.259219,-1.043872
-0.617704,-6.301539,-1.067814
-1.685518,-8.403648,0.550666
2.48997,-15.964537,-0.8379709999999999
-0.483629,-15.078682,-6.253655
-2.633622,-17.927782,-5.453991
-2.312799,-15.825673000000002,9.706094
-0.6272810000000001,-14.772224,-5.3821650000000005
2.466028,-6.856992999999999,-4.477157
-4.67827,-6.397307,-3.993528
-1.838747,-9.935937,-3.1076740000000003
0.325611,-8.619126,-3.4428620000000003
-2.604891,-4.180276,-2.652775
-2.700659,-13.340492,-3.912125
1.642422,-8.130708,-8.681376
2.930503,-8.51857,-2.236184
-0.943315,-0.943315,0.842759
-0.057461,-7.536947,-3.112462
-2.240973,-4.735731,-0.8044520000000001
0.483629,-8.561666,-3.653552
8.2169,-11.386824,-0.1005559999999999
4.458004,-6.914453999999999,-5.401319
2.475605,-8.705316999999999,-0.3734949999999999
-1.120486,-5.803545,2.044648
-2.39899,-8.451532,4.055778
5.64074,-8.566454,1.029507
-0.8283940000000001,-0.483629,10.582372
4.491523,-7.393294999999999,-1.58975
4.97994,-10.127473,-14.422671
1.106121,-7.115567,2.240973
1.355118,-8.667010000000001,1.479617
2.149993,-7.474697,5.93762
8.288725999999999,-10.783484,-3.165135
-0.991199,-19.416977,4.074930999999999
7.062895,-8.063671000000001,-0.972046
0.766145,-4.788403,-0.981623
0.02873,-6.545747,-0.6464340000000001
6.952762,-11.247959,0.344765
6.895301,-13.982138,-2.504335
-1.417367,-19.349937,0.177171
0.320823,-3.715801,-9.653421
-4.649539,-15.05474,1.192313
4.242526,-16.539145,-10.836157
6.789956,-6.947972999999999,-3.007117
0.933739,-4.606444000000001,-0.512359
3.2896330000000003,-7.469908999999999,-0.0430959999999999
-1.6519990000000002,-17.535133,-2.2505490000000004
-6.320692,-6.196194,1.896208
-1.331176,-17.956512,-0.632069
12.133814,-18.703505,-7.508216
6.588842999999999,-10.568007,-2.60968
0.282516,-9.251195,-0.933739
-3.20823,-4.711789,0.885855
2.418144,-8.571242,-1.675941
-5.861006,-6.397307,-3.375824
2.959233,-6.081272,-3.136404
-7.805097,-8.365341,-2.130839
-0.842759,-6.119579,-1.61848
-1.814805,-7.259219,-1.043872
-0.617704,-6.301539,-1.067814
-1.685518,-8.403648,0.550666
2.48997,-15.964537,-0.8379709999999999
-0.483629,-15.078682,-6.253655
-2.633622,-17.927782,-5.453991
-2.312799,-15.825673000000002,9.706094
-0.6272810000000001,-14.772224,-5.3821650000000005
2.466028,-6.856992999999999,-4.477157
-4.67827,-6.397307,-3.993528
-1.838747,-9.935937,-3.1076740000000003
0.325611,-8.619126,-3.4428620000000003
-2.604891,-4.180276,-2.652775
-2.700659,-13.340492,-3.912125
1.642422,-8.130708,-8.681376
2.930503,-8.51857,-2.236184
-0.943315,-0.943315,0.842759
-0.057461,-7.536947,-3.112462
-2.240973,-4.735731,-0.8044520000000001
0.483629,-8.561666,-3.653552
8.2169,-11.386824,-0.1005559999999999
-0.124498,-9.442732,-0.842759
2.657564,-10.381259,0.665588
2.418144,-8.571242,-1.675941
-5.861006,-6.397307,-3.375824
2.959233,-6.081272,-3.136404
-7.805097,-8.365341,-2.130839
-0.842759,-6.119579,-1.61848
-1.814805,-7.259219,-1.043872
-0.617704,-6.301539,-1.067814
-1.685518,-8.403648,0.550666
2.48997,-15.964537,-0.8379709999999999
-0.483629,-15.078682,-6.253655
-2.633622,-17.927782,-5.453991
-2.312799,-15.825673000000002,9.706094
-0.6272810000000001,-14.772224,-5.3821650000000005
2.466028,-6.856992999999999,-4.477157
-4.67827,-6.397307,-3.993528
-1.838747,-9.935937,-3.1076740000000003
0.325611,-8.619126,-3.4428620000000003
-2.604891,-4.180276,-2.652775
-2.700659,-13.340492,-3.912125
1.642422,-8.130708,-8.681376
2.930503,-8.51857,-2.236184
-0.943315,-0.943315,0.842759
-0.057461,-7.536947,-3.112462
-2.240973,-4.735731,-0.8044520000000001
0.483629,-8.561666,-3.653552
8.2169,-11.386824,-0.1005559999999999
-0.124498,-9.442732,-0.842759
2.657564,-10.381259,0.665588
1.383849,-16.093823999999998,-1.479617
1.771709,-13.642160999999998,-8.920795
2.959233,-6.081272,-3.136404
-7.805097,-8.365341,-2.130839
-0.842759,-6.119579,-1.61848
-1.814805,-7.259219,-1.043872
-0.617704,-6.301539,-1.067814
-1.685518,-8.403648,0.550666
2.48997,-15.964537,-0.8379709999999999
-0.483629,-15.078682,-6.253655
-2.633622,-17.927782,-5.453991
-2.312799,-15.825673000000002,9.706094
-0.6272810000000001,-14.772224,-5.3821650000000005
2.466028,-6.856992999999999,-4.477157
-4.67827,-6.397307,-3.993528
-1.838747,-9.935937,-3.1076740000000003
0.325611,-8.619126,-3.4428620000000003
-2.604891,-4.180276,-2.652775
-2.700659,-13.340492,-3.912125
1.642422,-8.130708,-8.681376
2.930503,-8.51857,-2.236184
-0.943315,-0.943315,0.842759
-0.057461,-7.536947,-3.112462
-2.240973,-4.735731,-0.8044520000000001
0.483629,-8.561666,-3.653552
8.2169,-11.386824,-0.1005559999999999
-0.124498,-9.442732,-0.842759
2.657564,-10.381259,0.665588
1.383849,-16.093823999999998,-1.479617
1.771709,-13.642160999999998,-8.920795
1.024718,-5.295974,-1.484405
2.628834,-4.697424,-3.892972
-0.842759,-6.119579,-1.61848
-1.814805,-7.259219,-1.043872
-0.617704,-6.301539,-1.067814
-1.685518,-8.403648,0.550666
2.48997,-15.964537,-0.8379709999999999
-0.483629,-15.078682,-6.253655
-2.633622,-17.927782,-5.453991
-2.312799,-15.825673000000002,9.706094
-0.6272810000000001,-14.772224,-5.3821650000000005
2.466028,-6.856992999999999,-4.477157
-4.67827,-6.397307,-3.993528
-1.838747,-9.935937,-3.1076740000000003
0.325611,-8.619126,-3.4428620000000003
-2.604891,-4.180276,-2.652775
-2.700659,-13.340492,-3.912125
1.642422,-8.130708,-8.681376
2.930503,-8.51857,-2.236184
-0.943315,-0.943315,0.842759
-0.057461,-7.536947,-3.112462
-2.240973,-4.735731,-0.8044520000000001
0.483629,-8.561666,-3.653552
8.2169,-11.386824,-0.1005559999999999
-0.124498,-9.442732,-0.842759
2.657564,-10.381259,0.665588
1.383849,-16.093823999999998,-1.479617
1.771709,-13.642160999999998,-8.920795
1.024718,-5.295974,-1.484405
2.628834,-4.697424,-3.892972
2.422932,-4.544194,1.604115
-0.229843,-7.383717999999999,-6.809108999999999
-0.617704,-6.301539,-1.067814
-1.685518,-8.403648,0.550666
2.48997,-15.964537,-0.8379709999999999
-0.483629,-15.078682,-6.253655
-2.633622,-17.927782,-5.453991
-2.312799,-15.825673000000002,9.706094
-0.6272810000000001,-14.772224,-5.3821650000000005
2.466028,-6.856992999999999,-4.477157
-4.67827,-6.397307,-3.993528
-1.838747,-9.935937,-3.1076740000000003
0.325611,-8.619126,-3.4428620000000003
-2.604891,-4.180276,-2.652775
-2.700659,-13.340492,-3.912125
1.642422,-8.130708,-8.681376
2.930503,-8.51857,-2.236184
-0.943315,-0.943315,0.842759
-0.057461,-7.536947,-3.112462
-2.240973,-4.735731,-0.8044520000000001
0.483629,-8.561666,-3.653552
8.2169,-11.386824,-0.1005559999999999
-0.124498,-9.442732,-0.842759
2.657564,-10.381259,0.665588
1.383849,-16.093823999999998,-1.479617
1.771709,-13.642160999999998,-8.920795
1.024718,-5.295974,-1.484405
2.628834,-4.697424,-3.892972
2.422932,-4.544194,1.604115
-0.229843,-7.383717999999999,-6.809108999999999
2.949657,-13.354857,-3.998317
1.134852,-5.291186,-4.3766
2.48997,-15.964537,-0.8379709999999999
-0.483629,-15.078682,-6.253655
-2.633622,-17.927782,-5.453991
-2.312799,-15.825673000000002,9.706094
-0.6272810000000001,-14.772224,-5.3821650000000005
2.466028,-6.856992999999999,-4.477157
-4.67827,-6.397307,-3.993528
-1.838747,-9.935937,-3.1076740000000003
0.325611,-8.619126,-3.4428620000000003
-2.604891,-4.180276,-2.652775
-2.700659,-13.340492,-3.912125
1.642422,-8.130708,-8.681376
2.930503,-8.51857,-2.236184
-0.943315,-0.943315,0.842759
-0.057461,-7.536947,-3.112462
-2.240973,-4.735731,-0.8044520000000001
0.483629,-8.561666,-3.653552
8.2169,-11.386824,-0.1005559999999999
-0.124498,-9.442732,-0.842759
2.657564,-10.381259,0.665588
1.383849,-16.093823999999998,-1.479617
1.771709,-13.642160999999998,-8.920795
1.024718,-5.295974,-1.484405
2.628834,-4.697424,-3.892972
2.422932,-4.544194,1.604115
-0.229843,-7.383717999999999,-6.809108999999999
2.949657,-13.354857,-3.998317
1.134852,-5.291186,-4.3766
-0.536301,-6.2153480000000005,-6.378153
2.48997,-7.809886,-3.672705
-2.633622,-17.927782,-5.453991
-2.312799,-15.825673000000002,9.706094
-0.6272810000000001,-14.772224,-5.3821650000000005
2.466028,-6.856992999999999,-4.477157
-4.67827,-6.397307,-3.993528
-1.838747,-9.935937,-3.1076740000000003
0.325611,-8.619126,-3.4428620000000003
-2.604891,-4.180276,-2.652775
-2.700659,-13.340492,-3.912125
1.642422,-8.130708,-8.681376
2.930503,-8.51857,-2.236184
-0.943315,-0.943315,0.842759
-0.057461,-7.536947,-3.112462
-2.240973,-4.735731,-0.8044520000000001
0.483629,-8.561666,-3.653552
8.2169,-11.386824,-0.1005559999999999
-0.124498,-9.442732,-0.842759
2.657564,-10.381259,0.665588
1.383849,-16.093823999999998,-1.479617
1.771709,-13.642160999999998,-8.920795
1.024718,-5.295974,-1.484405
2.628834,-4.697424,-3.892972
2.422932,-4.544194,1.604115
-0.229843,-7.383717999999999,-6.809108999999999
2.949657,-13.354857,-3.998317
1.134852,-5.291186,-4.3766
-0.536301,-6.2153480000000005,-6.378153
2.48997,-7.809886,-3.672705
2.686294,-16.46732,-2.336741
2.5953150000000003,-15.524004,-2.437297
-0.6272810000000001,-14.772224,-5.3821650000000005
2.466028,-6.856992999999999,-4.477157
-4.67827,-6.397307,-3.993528
-1.838747,-9.935937,-3.1076740000000003
0.325611,-8.619126,-3.4428620000000003
-2.604891,-4.180276,-2.652775
-2.700659,-13.340492,-3.912125
1.642422,-8.130708,-8.681376
2.930503,-8.51857,-2.236184
-0.943315,-0.943315,0.842759
-0.057461,-7.536947,-3.112462
-2.240973,-4.735731,-0.8044520000000001
0.483629,-8.561666,-3.653552
8.2169,-11.386824,-0.1005559999999999
-0.124498,-9.442732,-0.842759
2.657564,-10.381259,0.665588
1.383849,-16.093823999999998,-1.479617
1.771709,-13.642160999999998,-8.920795
1.024718,-5.295974,-1.484405
2.628834,-4.697424,-3.892972
2.422932,-4.544194,1.604115
-0.229843,-7.383717999999999,-6.809108999999999
2.949657,-13.354857,-3.998317
1.134852,-5.291186,-4.3766
-0.536301,-6.2153480000000005,-6.378153
2.48997,-7.809886,-3.672705
2.686294,-16.46732,-2.336741
2.5953150000000003,-15.524004,-2.437297
-6.186617,-13.532028,-3.155558
-0.536301,-11.386824,-12.243947
-4.67827,-6.397307,-3.993528
-1.838747,-9.935937,-3.1076740000000003
0.325611,-8.619126,-3.4428620000000003
-2.604891,-4.180276,-2.652775
-2.700659,-13.340492,-3.912125
1.642422,-8.130708,-8.681376
2.930503,-8.51857,-2.236184
-0.943315,-0.943315,0.842759
-0.057461,-7.536947,-3.112462
-2.240973,-4.735731,-0.8044520000000001
0.483629,-8.561666,-3.653552
8.2169,-11.386824,-0.1005559999999999
-0.124498,-9.442732,-0.842759
2.657564,-10.381259,0.665588
1.383849,-16.093823999999998,-1.479617
1.771709,-13.642160999999998,-8.920795
1.024718,-5.295974,-1.484405
2.628834,-4.697424,-3.892972
2.422932,-4.544194,1.604115
-0.229843,-7.383717999999999,-6.809108999999999
2.949657,-13.354857,-3.998317
1.134852,-5.291186,-4.3766
-0.536301,-6.2153480000000005,-6.378153
2.48997,-7.809886,-3.672705
2.686294,-16.46732,-2.336741
2.5953150000000003,-15.524004,-2.437297
-6.186617,-13.532028,-3.155558
-0.536301,-11.386824,-12.243947
-5.228936,-7.862558,-3.323152
0.316035,-8.226476,-2.590526
0.325611,-8.619126,-3.4428620000000003
-2.604891,-4.180276,-2.652775
-2.700659,-13.340492,-3.912125
1.642422,-8.130708,-8.681376
2.930503,-8.51857,-2.236184
-0.943315,-0.943315,0.842759
-0.057461,-7.536947,-3.112462
-2.240973,-4.735731,-0.8044520000000001
0.483629,-8.561666,-3.653552
8.2169,-11.386824,-0.1005559999999999
-0.124498,-9.442732,-0.842759
2.657564,-10.381259,0.665588
1.383849,-16.093823999999998,-1.479617
1.771709,-13.642160999999998,-8.920795
1.024718,-5.295974,-1.484405
2.628834,-4.697424,-3.892972
2.422932,-4.544194,1.604115
-0.229843,-7.383717999999999,-6.809108999999999
2.949657,-13.354857,-3.998317
1.134852,-5.291186,-4.3766
-0.536301,-6.2153480000000005,-6.378153
2.48997,-7.809886,-3.672705
2.686294,-16.46732,-2.336741
2.5953150000000003,-15.524004,-2.437297
-6.186617,-13.532028,-3.155558
-0.536301,-11.386824,-12.243947
-5.228936,-7.862558,-3.323152
0.316035,-8.226476,-2.590526
1.01993,-9.423578,-5.741296
-0.6272810000000001,-8.944737,-6.315904
-1.120486,-5.803545,2.044648
-2.39899,-8.451532,4.055778
5.64074,-8.566454,1.029507
-0.8283940000000001,-0.483629,10.582372
4.491523,-7.393294999999999,-1.58975
4.97994,-10.127473,-14.422671
1.106121,-7.115567,2.240973
1.355118,-8.667010000000001,1.479617
2.149993,-7.474697,5.93762
8.288725999999999,-10.783484,-3.165135
-0.991199,-19.416977,4.074930999999999
7.062895,-8.063671000000001,-0.972046
0.766145,-4.788403,-0.981623
0.02873,-6.545747,-0.6464340000000001
6.952762,-11.247959,0.344765
6.895301,-13.982138,-2.504335
-1.417367,-19.349937,0.177171
0.320823,-3.715801,-9.653421
-4.649539,-15.05474,1.192313
4.242526,-16.539145,-10.836157
6.789956,-6.947972999999999,-3.007117
0.933739,-4.606444000000001,-0.512359
3.2896330000000003,-7.469908999999999,-0.0430959999999999
-1.6519990000000002,-17.535133,-2.2505490000000004
-6.320692,-6.196194,1.896208
-1.331176,-17.956512,-0.632069
12.133814,-18.703505,-7.508216
6.588842999999999,-10.568007,-2.60968
7.996633999999999,-5.918466,-6.646304
0.2585739999999999,-8.657434,-2.351106
-2.700659,-13.340492,-3.912125
1.642422,-8.130708,-8.681376
2.930503,-8.51857,-2.236184
-0.943315,-0.943315,0.842759
-0.057461,-7.536947,-3.112462
-2.240973,-4.735731,-0.8044520000000001
0.483629,-8.561666,-3.653552
8.2169,-11.386824,-0.1005559999999999
-0.124498,-9.442732,-0.842759
2.657564,-10.381259,0.665588
1.383849,-16.093823999999998,-1.479617
1.771709,-13.642160999999998,-8.920795
1.024718,-5.295974,-1.484405
2.628834,-4.697424,-3.892972
2.422932,-4.544194,1.604115
-0.229843,-7.383717999999999,-6.809108999999999
2.949657,-13.354857,-3.998317
1.134852,-5.291186,-4.3766
-0.536301,-6.2153480000000005,-6.378153
2.48997,-7.809886,-3.672705
2.686294,-16.46732,-2.336741
2.5953150000000003,-15.524004,-2.437297
-6.186617,-13.532028,-3.155558
-0.536301,-11.386824,-12.243947
-5.228936,-7.862558,-3.323152
0.316035,-8.226476,-2.590526
1.01993,-9.423578,-5.741296
-0.6272810000000001,-8.944737,-6.315904
-1.082179,-5.779603,-0.483629
1.4604629999999998,-11.267113,-1.340753
2.930503,-8.51857,-2.236184
-0.943315,-0.943315,0.842759
-0.057461,-7.536947,-3.112462
-2.240973,-4.735731,-0.8044520000000001
0.483629,-8.561666,-3.653552
8.2169,-11.386824,-0.1005559999999999
-0.124498,-9.442732,-0.842759
2.657564,-10.381259,0.665588
1.383849,-16.093823999999998,-1.479617
1.771709,-13.642160999999998,-8.920795
1.024718,-5.295974,-1.484405
2.628834,-4.697424,-3.892972
2.422932,-4.544194,1.604115
-0.229843,-7.383717999999999,-6.809108999999999
2.949657,-13.354857,-3.998317
1.134852,-5.291186,-4.3766
-0.536301,-6.2153480000000005,-6.378153
2.48997,-7.809886,-3.672705
2.686294,-16.46732,-2.336741
2.5953150000000003,-15.524004,-2.437297
-6.186617,-13.532028,-3.155558
-0.536301,-11.386824,-12.243947
-5.228936,-7.862558,-3.323152
0.316035,-8.226476,-2.590526
1.01993,-9.423578,-5.741296
-0.6272810000000001,-8.944737,-6.315904
-1.082179,-5.779603,-0.483629
1.4604629999999998,-11.267113,-1.340753
-3.835511,-12.253524,8.130709
1.776498,-7.091625,0.636858
-0.057461,-7.536947,-3.112462
-2.240973,-4.735731,-0.8044520000000001
0.483629,-8.561666,-3.653552
8.2169,-11.386824,-0.1005559999999999
-0.124498,-9.442732,-0.842759
2.657564,-10.381259,0.665588
1.383849,-16.093823999999998,-1.479617
1.771709,-13.642160999999998,-8.920795
1.024718,-5.295974,-1.484405
2.628834,-4.697424,-3.892972
2.422932,-4.544194,1.604115
-0.229843,-7.383717999999999,-6.809108999999999
2.949657,-13.354857,-3.998317
1.134852,-5.291186,-4.3766
-0.536301,-6.2153480000000005,-6.378153
2.48997,-7.809886,-3.672705
2.686294,-16.46732,-2.336741
2.5953150000000003,-15.524004,-2.437297
-6.186617,-13.532028,-3.155558
-0.536301,-11.386824,-12.243947
-5.228936,-7.862558,-3.323152
0.316035,-8.226476,-2.590526
1.01993,-9.423578,-5.741296
-0.6272810000000001,-8.944737,-6.315904
-1.082179,-5.779603,-0.483629
1.4604629999999998,-11.267113,-1.340753
-3.835511,-12.253524,8.130709
1.776498,-7.091625,0.636858
14.164097,-11.554418,5.99987
10.864887,-1.446098,5.295975
0.483629,-8.561666,-3.653552
8.2169,-11.386824,-0.1005559999999999
-0.124498,-9.442732,-0.842759
2.657564,-10.381259,0.665588
1.383849,-16.093823999999998,-1.479617
1.771709,-13.642160999999998,-8.920795
1.024718,-5.295974,-1.484405
2.628834,-4.697424,-3.892972
2.422932,-4.544194,1.604115
-0.229843,-7.383717999999999,-6.809108999999999
2.949657,-13.354857,-3.998317
1.134852,-5.291186,-4.3766
-0.536301,-6.2153480000000005,-6.378153
2.48997,-7.809886,-3.672705
2.686294,-16.46732,-2.336741
2.5953150000000003,-15.524004,-2.437297
-6.186617,-13.532028,-3.155558
-0.536301,-11.386824,-12.243947
-5.228936,-7.862558,-3.323152
0.316035,-8.226476,-2.590526
1.01993,-9.423578,-5.741296
-0.6272810000000001,-8.944737,-6.315904
-1.082179,-5.779603,-0.483629
1.4604629999999998,-11.267113,-1.340753
-3.835511,-12.253524,8.130709
1.776498,-7.091625,0.636858
14.164097,-11.554418,5.99987
10.864887,-1.446098,5.295975
9.064447,-3.0502130000000003,15.011644
6.871359,-2.738967,11.865664
-0.124498,-9.442732,-0.842759
2.657564,-10.381259,0.665588
1.383849,-16.093823999999998,-1.479617
1.771709,-13.642160999999998,-8.920795
1.024718,-5.295974,-1.484405
2.628834,-4.697424,-3.892972
2.422932,-4.544194,1.604115
-0.229843,-7.383717999999999,-6.809108999999999
2.949657,-13.354857,-3.998317
1.134852,-5.291186,-4.3766
-0.536301,-6.2153480000000005,-6.378153
2.48997,-7.809886,-3.672705
2.686294,-16.46732,-2.336741
2.5953150000000003,-15.524004,-2.437297
-6.186617,-13.532028,-3.155558
-0.536301,-11.386824,-12.243947
-5.228936,-7.862558,-3.323152
0.316035,-8.226476,-2.590526
1.01993,-9.423578,-5.741296
-0.6272810000000001,-8.944737,-6.315904
-1.082179,-5.779603,-0.483629
1.4604629999999998,-11.267113,-1.340753
-3.835511,-12.253524,8.130709
1.776498,-7.091625,0.636858
14.164097,-11.554418,5.99987
10.864887,-1.446098,5.295975
9.064447,-3.0502130000000003,15.011644
6.871359,-2.738967,11.865664
5.521029,-0.158017,10.16578
3.394978,0.0909799999999999,5.243302
1.383849,-16.093823999999998,-1.479617
1.771709,-13.642160999999998,-8.920795
1.024718,-5.295974,-1.484405
2.628834,-4.697424,-3.892972
2.422932,-4.544194,1.604115
-0.229843,-7.383717999999999,-6.809108999999999
2.949657,-13.354857,-3.998317
1.134852,-5.291186,-4.3766
-0.536301,-6.2153480000000005,-6.378153
2.48997,-7.809886,-3.672705
2.686294,-16.46732,-2.336741
2.5953150000000003,-15.524004,-2.437297
-6.186617,-13.532028,-3.155558
-0.536301,-11.386824,-12.243947
-5.228936,-7.862558,-3.323152
0.316035,-8.226476,-2.590526
1.01993,-9.423578,-5.741296
-0.6272810000000001,-8.944737,-6.315904
-1.082179,-5.779603,-0.483629
1.4604629999999998,-11.267113,-1.340753
-3.835511,-12.253524,8.130709
1.776498,-7.091625,0.636858
14.164097,-11.554418,5.99987
10.864887,-1.446098,5.295975
9.064447,-3.0502130000000003,15.011644
6.871359,-2.738967,11.865664
5.521029,-0.158017,10.16578
3.394978,0.0909799999999999,5.243302
2.499547,1.034295,8.508992999999998
-2.643199,1.848324,9.260772
0.229843,-2.566584,-4.539406
-2.0254950000000003,-8.078036,-0.464475
-1.695095,-2.48997,1.11091
-2.494758,-7.867347,-0.665588
-4.10845,-9.32781,0.21069
-4.223372,-17.922995,-4.654328
-8.825027,-12.411542,-3.476381
-3.557784,-5.492298,-0.1005559999999999
-3.998317,-14.302960999999998,-0.919373
-1.297657,-1.517924,-2.149993
-5.736507,-15.35641,-1.039083
1.024718,-3.825934,-3.1795
-1.94888,-14.389153,-3.08852
-3.203442,-1.072602,-0.071826
-6.842628,-6.809108999999999,-1.934515
-4.984728,-8.633492,-2.906561
-2.911349,-8.556877,-1.848324
-3.002329,-13.148955,0.646435
-5.06613,-9.428367,0.732626
-8.614338,-15.021221,-1.436521
0.349553,-6.5792660000000005,-6.995857000000001
-2.920926,-10.726024,-0.148441
-3.653552,-10.951078,-4.003105000000001
-9.332599,-18.492813,-6.440402
-5.755661,-13.891158,1.273715
-7.196969999999999,-11.358092999999998,1.685518
-10.036493,-12.765883,-0.6464340000000001
-0.158017,-2.930503,-7.479486
-2.604891,-7.661445,-0.11971
-1.40779,-13.340492,-3.916914
-1.695095,-2.48997,1.11091
-2.494758,-7.867347,-0.665588
-4.10845,-9.32781,0.21069
-4.223372,-17.922995,-4.654328
-8.825027,-12.411542,-3.476381
-3.557784,-5.492298,-0.1005559999999999
-3.998317,-14.302960999999998,-0.919373
-1.297657,-1.517924,-2.149993
-5.736507,-15.35641,-1.039083
1.024718,-3.825934,-3.1795
-1.94888,-14.389153,-3.08852
-3.203442,-1.072602,-0.071826
-6.842628,-6.809108999999999,-1.934515
-4.984728,-8.633492,-2.906561
-2.911349,-8.556877,-1.848324
-3.002329,-13.148955,0.646435
-5.06613,-9.428367,0.732626
-8.614338,-15.021221,-1.436521
0.349553,-6.5792660000000005,-6.995857000000001
-2.920926,-10.726024,-0.148441
-3.653552,-10.951078,-4.003105000000001
-9.332599,-18.492813,-6.440402
-5.755661,-13.891158,1.273715
-7.196969999999999,-11.358092999999998,1.685518
-10.036493,-12.765883,-0.6464340000000001
-0.158017,-2.930503,-7.479486
-2.604891,-7.661445,-0.11971
-1.40779,-13.340492,-3.916914
-2.255338,-14.398729,-2.801216
-7.517792999999999,-11.947066,-1.656788
-4.10845,-9.32781,0.21069
-4.223372,-17.922995,-4.654328
-8.825027,-12.411542,-3.476381
-3.557784,-5.492298,-0.1005559999999999
-3.998317,-14.302960999999998,-0.919373
-1.297657,-1.517924,-2.149993
-5.736507,-15.35641,-1.039083
1.024718,-3.825934,-3.1795
-1.94888,-14.389153,-3.08852
-3.203442,-1.072602,-0.071826
-6.842628,-6.809108999999999,-1.934515
-4.984728,-8.633492,-2.906561
-2.911349,-8.556877,-1.848324
-3.002329,-13.148955,0.646435
-5.06613,-9.428367,0.732626
-8.614338,-15.021221,-1.436521
0.349553,-6.5792660000000005,-6.995857000000001
-2.920926,-10.726024,-0.148441
-3.653552,-10.951078,-4.003105000000001
-9.332599,-18.492813,-6.440402
-5.755661,-13.891158,1.273715
-7.196969999999999,-11.358092999999998,1.685518
-10.036493,-12.765883,-0.6464340000000001
-0.158017,-2.930503,-7.479486
-2.604891,-7.661445,-0.11971
-1.40779,-13.340492,-3.916914
-2.255338,-14.398729,-2.801216
-7.517792999999999,-11.947066,-1.656788
-1.996764,1.393425,2.652776
-4.189853,-10.275913,1.1300629999999998
-8.825027,-12.411542,-3.476381
-3.557784,-5.492298,-0.1005559999999999
-3.998317,-14.302960999999998,-0.919373
-1.297657,-1.517924,-2.149993
-5.736507,-15.35641,-1.039083
1.024718,-3.825934,-3.1795
-1.94888,-14.389153,-3.08852
-3.203442,-1.072602,-0.071826
-6.842628,-6.809108999999999,-1.934515
-4.984728,-8.633492,-2.906561
-2.911349,-8.556877,-1.848324
-3.002329,-13.148955,0.646435
-5.06613,-9.428367,0.732626
-8.614338,-15.021221,-1.436521
0.349553,-6.5792660000000005,-6.995857000000001
-2.920926,-10.726024,-0.148441
-3.653552,-10.951078,-4.003105000000001
-9.332599,-18.492813,-6.440402
-5.755661,-13.891158,1.273715
-7.196969999999999,-11.358092999999998,1.685518
-10.036493,-12.765883,-0.6464340000000001
-0.158017,-2.930503,-7.479486
-2.604891,-7.661445,-0.11971
-1.40779,-13.340492,-3.916914
-2.255338,-14.398729,-2.801216
-7.517792999999999,-11.947066,-1.656788
-1.996764,1.393425,2.652776
-4.189853,-10.275913,1.1300629999999998
0.8379709999999999,-11.693281,-1.1300629999999998
-3.122039,-11.985373,-1.393425
5.64074,-8.566454,1.029507
-0.8283940000000001,-0.483629,10.582372
4.491523,-7.393294999999999,-1.58975
4.97994,-10.127473,-14.422671
1.106121,-7.115567,2.240973
1.355118,-8.667010000000001,1.479617
2.149993,-7.474697,5.93762
8.288725999999999,-10.783484,-3.165135
-0.991199,-19.416977,4.074930999999999
7.062895,-8.063671000000001,-0.972046
0.766145,-4.788403,-0.981623
0.02873,-6.545747,-0.6464340000000001
6.952762,-11.247959,0.344765
6.895301,-13.982138,-2.504335
-1.417367,-19.349937,0.177171
0.320823,-3.715801,-9.653421
-4.649539,-15.05474,1.192313
4.242526,-16.539145,-10.836157
6.789956,-6.947972999999999,-3.007117
0.933739,-4.606444000000001,-0.512359
3.2896330000000003,-7.469908999999999,-0.0430959999999999
-1.6519990000000002,-17.535133,-2.2505490000000004
-6.320692,-6.196194,1.896208
-1.331176,-17.956512,-0.632069
12.133814,-18.703505,-7.508216
6.588842999999999,-10.568007,-2.60968
7.996633999999999,-5.918466,-6.646304
0.2585739999999999,-8.657434,-2.351106
-1.94888,-5.003881,2.006341
1.364695,-8.054094000000001,-3.222595
-3.998317,-14.302960999999998,-0.919373
-1.297657,-1.517924,-2.149993
-5.736507,-15.35641,-1.039083
1.024718,-3.825934,-3.1795
-1.94888,-14.389153,-3.08852
-3.203442,-1.072602,-0.071826
-6.842628,-6.809108999999999,-1.934515
-4.984728,-8.633492,-2.906561
-2.911349,-8.556877,-1.848324
-3.002329,-13.148955,0.646435
-5.06613,-9.428367,0.732626
-8.614338,-15.021221,-1.436521
0.349553,-6.5792660000000005,-6.995857000000001
-2.920926,-10.726024,-0.148441
-3.653552,-10.951078,-4.003105000000001
-9.332599,-18.492813,-6.440402
-5.755661,-13.891158,1.273715
-7.196969999999999,-11.358092999999998,1.685518
-10.036493,-12.765883,-0.6464340000000001
-0.158017,-2.930503,-7.479486
-2.604891,-7.661445,-0.11971
-1.40779,-13.340492,-3.916914
-2.255338,-14.398729,-2.801216
-7.517792999999999,-11.947066,-1.656788
-1.996764,1.393425,2.652776
-4.189853,-10.275913,1.1300629999999998
0.8379709999999999,-11.693281,-1.1300629999999998
-3.122039,-11.985373,-1.393425
-2.078167,-4.209007,-1.244985
-1.877054,-6.943185000000001,-1.915361
-5.736507,-15.35641,-1.039083
1.024718,-3.825934,-3.1795
-1.94888,-14.389153,-3.08852
-3.203442,-1.072602,-0.071826
-6.842628,-6.809108999999999,-1.934515
-4.984728,-8.633492,-2.906561
-2.911349,-8.556877,-1.848324
-3.002329,-13.148955,0.646435
-5.06613,-9.428367,0.732626
-8.614338,-15.021221,-1.436521
0.349553,-6.5792660000000005,-6.995857000000001
-2.920926,-10.726024,-0.148441
-3.653552,-10.951078,-4.003105000000001
-9.332599,-18.492813,-6.440402
-5.755661,-13.891158,1.273715
-7.196969999999999,-11.358092999999998,1.685518
-10.036493,-12.765883,-0.6464340000000001
-0.158017,-2.930503,-7.479486
-2.604891,-7.661445,-0.11971
-1.40779,-13.340492,-3.916914
-2.255338,-14.398729,-2.801216
-7.517792999999999,-11.947066,-1.656788
-1.996764,1.393425,2.652776
-4.189853,-10.275913,1.1300629999999998
0.8379709999999999,-11.693281,-1.1300629999999998
-3.122039,-11.985373,-1.393425
-2.078167,-4.209007,-1.244985
-1.877054,-6.943185000000001,-1.915361
-5.473145,-10.730812,-1.077391
2.987964,-5.018246,1.647211
-1.94888,-14.389153,-3.08852
-3.203442,-1.072602,-0.071826
-6.842628,-6.809108999999999,-1.934515
-4.984728,-8.633492,-2.906561
-2.911349,-8.556877,-1.848324
-3.002329,-13.148955,0.646435
-5.06613,-9.428367,0.732626
-8.614338,-15.021221,-1.436521
0.349553,-6.5792660000000005,-6.995857000000001
-2.920926,-10.726024,-0.148441
-3.653552,-10.951078,-4.003105000000001
-9.332599,-18.492813,-6.440402
-5.755661,-13.891158,1.273715
-7.196969999999999,-11.358092999999998,1.685518
-10.036493,-12.765883,-0.6464340000000001
-0.158017,-2.930503,-7.479486
-2.604891,-7.661445,-0.11971
-1.40779,-13.340492,-3.916914
-2.255338,-14.398729,-2.801216
-7.517792999999999,-11.947066,-1.656788
-1.996764,1.393425,2.652776
-4.189853,-10.275913,1.1300629999999998
0.8379709999999999,-11.693281,-1.1300629999999998
-3.122039,-11.985373,-1.393425
-2.078167,-4.209007,-1.244985
-1.877054,-6.943185000000001,-1.915361
-5.473145,-10.730812,-1.077391
2.987964,-5.018246,1.647211
0.675165,-11.60709,-2.662352
-1.278504,-2.700659,0.924162
-6.842628,-6.809108999999999,-1.934515
-4.984728,-8.633492,-2.906561
-2.911349,-8.556877,-1.848324
-3.002329,-13.148955,0.646435
-5.06613,-9.428367,0.732626
-8.614338,-15.021221,-1.436521
0.349553,-6.5792660000000005,-6.995857000000001
-2.920926,-10.726024,-0.148441
-3.653552,-10.951078,-4.003105000000001
-9.332599,-18.492813,-6.440402
-5.755661,-13.891158,1.273715
-7.196969999999999,-11.358092999999998,1.685518
-10.036493,-12.765883,-0.6464340000000001
-0.158017,-2.930503,-7.479486
-2.604891,-7.661445,-0.11971
-1.40779,-13.340492,-3.916914
-2.255338,-14.398729,-2.801216
-7.517792999999999,-11.947066,-1.656788
-1.996764,1.393425,2.652776
-4.189853,-10.275913,1.1300629999999998
0.8379709999999999,-11.693281,-1.1300629999999998
-3.122039,-11.985373,-1.393425
-2.078167,-4.209007,-1.244985
-1.877054,-6.943185000000001,-1.915361
-5.473145,-10.730812,-1.077391
2.987964,-5.018246,1.647211
0.675165,-11.60709,-2.662352
-1.278504,-2.700659,0.924162
-4.424484,-10.726024,-1.082179
0.646435,-0.641646,-1.04866
-2.911349,-8.556877,-1.848324
-3.002329,-13.148955,0.646435
-5.06613,-9.428367,0.732626
-8.614338,-15.021221,-1.436521
0.349553,-6.5792660000000005,-6.995857000000001
-2.920926,-10.726024,-0.148441
-3.653552,-10.951078,-4.003105000000001
-9.332599,-18.492813,-6.440402
-5.755661,-13.891158,1.273715
-7.196969999999999,-11.358092999999998,1.685518
-10.036493,-12.765883,-0.6464340000000001
-0.158017,-2.930503,-7.479486
-2.604891,-7.661445,-0.11971
-1.40779,-13.340492,-3.916914
-2.255338,-14.398729,-2.801216
-7.517792999999999,-11.947066,-1.656788
-1.996764,1.393425,2.652776
-4.189853,-10.275913,1.1300629999999998
0.8379709999999999,-11.693281,-1.1300629999999998
-3.122039,-11.985373,-1.393425
-2.078167,-4.209007,-1.244985
-1.877054,-6.943185000000001,-1.915361
-5.473145,-10.730812,-1.077391
2.987964,-5.018246,1.647211
0.675165,-11.60709,-2.662352
-1.278504,-2.700659,0.924162
-4.424484,-10.726024,-1.082179
0.646435,-0.641646,-1.04866
-1.623269,-6.603208,0.071826
-4.323928,-2.671929,3.485958
-5.06613,-9.428367,0.732626
-8.614338,-15.021221,-1.436521
0.349553,-6.5792660000000005,-6.995857000000001
-2.920926,-10.726024,-0.148441
-3.653552,-10.951078,-4.003105000000001
-9.332599,-18.492813,-6.440402
-5.755661,-13.891158,1.273715
-7.196969999999999,-11.358092999999998,1.685518
-10.036493,-12.765883,-0.6464340000000001
-0.158017,-2.930503,-7.479486
-2.604891,-7.661445,-0.11971
-1.40779,-13.340492,-3.916914
-2.255338,-14.398729,-2.801216
-7.517792999999999,-11.947066,-1.656788
-1.996764,1.393425,2.652776
-4.189853,-10.275913,1.1300629999999998
0.8379709999999999,-11.693281,-1.1300629999999998
-3.122039,-11.985373,-1.393425
-2.078167,-4.209007,-1.244985
-1.877054,-6.943185000000001,-1.915361
-5.473145,-10.730812,-1.077391
2.987964,-5.018246,1.647211
0.675165,-11.60709,-2.662352
-1.278504,-2.700659,0.924162
-4.424484,-10.726024,-1.082179
0.646435,-0.641646,-1.04866
-1.623269,-6.603208,0.071826
-4.323928,-2.671929,3.485958
-5.228936,-3.557784,-0.038307
-3.08852,-14.130578,0.215478
0.349553,-6.5792660000000005,-6.995857000000001
-2.920926,-10.726024,-0.148441
-3.653552,-10.951078,-4.003105000000001
-9.332599,-18.492813,-6.440402
-5.755661,-13.891158,1.273715
-7.196969999999999,-11.358092999999998,1.685518
-10.036493,-12.765883,-0.6464340000000001
-0.158017,-2.930503,-7.479486
-2.604891,-7.661445,-0.11971
-1.40779,-13.340492,-3.916914
-2.255338,-14.398729,-2.801216
-7.517792999999999,-11.947066,-1.656788
-1.996764,1.393425,2.652776
-4.189853,-10.275913,1.1300629999999998
0.8379709999999999,-11.693281,-1.1300629999999998
-3.122039,-11.985373,-1.393425
-2.078167,-4.209007,-1.244985
-1.877054,-6.943185000000001,-1.915361
-5.473145,-10.730812,-1.077391
2.987964,-5.018246,1.647211
0.675165,-11.60709,-2.662352
-1.278504,-2.700659,0.924162
-4.424484,-10.726024,-1.082179
0.646435,-0.641646,-1.04866
-1.623269,-6.603208,0.071826
-4.323928,-2.671929,3.485958
-5.228936,-3.557784,-0.038307
-3.08852,-14.130578,0.215478
-3.021482,-8.39886,1.312023
-11.238382,-12.018892,-2.762909
-3.653552,-10.951078,-4.003105000000001
-9.332599,-18.492813,-6.440402
-5.755661,-13.891158,1.273715
-7.196969999999999,-11.358092999999998,1.685518
-10.036493,-12.765883,-0.6464340000000001
-0.158017,-2.930503,-7.479486
-2.604891,-7.661445,-0.11971
-1.40779,-13.340492,-3.916914
-2.255338,-14.398729,-2.801216
-7.517792999999999,-11.947066,-1.656788
-1.996764,1.393425,2.652776
-4.189853,-10.275913,1.1300629999999998
0.8379709999999999,-11.693281,-1.1300629999999998
-3.122039,-11.985373,-1.393425
-2.078167,-4.209007,-1.244985
-1.877054,-6.943185000000001,-1.915361
-5.473145,-10.730812,-1.077391
2.987964,-5.018246,1.647211
0.675165,-11.60709,-2.662352
-1.278504,-2.700659,0.924162
-4.424484,-10.726024,-1.082179
0.646435,-0.641646,-1.04866
-1.623269,-6.603208,0.071826
-4.323928,-2.671929,3.485958
-5.228936,-3.557784,-0.038307
-3.08852,-14.130578,0.215478
-3.021482,-8.39886,1.312023
-11.238382,-12.018892,-2.762909
-0.488417,-9.356541,0.11971
-7.675811,-17.00362,-1.5466540000000002
-5.755661,-13.891158,1.273715
-7.196969999999999,-11.358092999999998,1.685518
-10.036493,-12.765883,-0.6464340000000001
-0.158017,-2.930503,-7.479486
-2.604891,-7.661445,-0.11971
-1.40779,-13.340492,-3.916914
-2.255338,-14.398729,-2.801216
-7.517792999999999,-11.947066,-1.656788
-1.996764,1.393425,2.652776
-4.189853,-10.275913,1.1300629999999998
0.8379709999999999,-11.693281,-1.1300629999999998
-3.122039,-11.985373,-1.393425
-2.078167,-4.209007,-1.244985
-1.877054,-6.943185000000001,-1.915361
-5.473145,-10.730812,-1.077391
2.987964,-5.018246,1.647211
0.675165,-11.60709,-2.662352
-1.278504,-2.700659,0.924162
-4.424484,-10.726024,-1.082179
0.646435,-0.641646,-1.04866
-1.623269,-6.603208,0.071826
-4.323928,-2.671929,3.485958
-5.228936,-3.557784,-0.038307
-3.08852,-14.130578,0.215478
-3.021482,-8.39886,1.312023
-11.238382,-12.018892,-2.762909
-0.488417,-9.356541,0.11971
-7.675811,-17.00362,-1.5466540000000002
-0.521936,0.708684,-5.0517650000000005
-3.715801,-5.645528,0.670377
-10.036493,-12.765883,-0.6464340000000001
-0.158017,-2.930503,-7.479486
-2.604891,-7.661445,-0.11971
-1.40779,-13.340492,-3.916914
-2.255338,-14.398729,-2.801216
-7.517792999999999,-11.947066,-1.656788
-1.996764,1.393425,2.652776
-4.189853,-10.275913,1.1300629999999998
0.8379709999999999,-11.693281,-1.1300629999999998
-3.122039,-11.985373,-1.393425
-2.078167,-4.209007,-1.244985
-1.877054,-6.943185000000001,-1.915361
-5.473145,-10.730812,-1.077391
2.987964,-5.018246,1.647211
0.675165,-11.60709,-2.662352
-1.278504,-2.700659,0.924162
-4.424484,-10.726024,-1.082179
0.646435,-0.641646,-1.04866
-1.623269,-6.603208,0.071826
-4.323928,-2.671929,3.485958
-5.228936,-3.557784,-0.038307
-3.08852,-14.130578,0.215478
-3.021482,-8.39886,1.312023
-11.238382,-12.018892,-2.762909
-0.488417,-9.356541,0.11971
-7.675811,-17.00362,-1.5466540000000002
-0.521936,0.708684,-5.0517650000000005
-3.715801,-5.645528,0.670377
-1.666364,-9.121908,-2.753332
-6.354211,-5.717354,-0.579397
4.491523,-7.393294999999999,-1.58975
4.97994,-10.127473,-14.422671
1.106121,-7.115567,2.240973
1.355118,-8.667010000000001,1.479617
2.149993,-7.474697,5.93762
8.288725999999999,-10.783484,-3.165135
-0.991199,-19.416977,4.074930999999999
7.062895,-8.063671000000001,-0.972046
0.766145,-4.788403,-0.981623
0.02873,-6.545747,-0.6464340000000001
6.952762,-11.247959,0.344765
6.895301,-13.982138,-2.504335
-1.417367,-19.349937,0.177171
0.320823,-3.715801,-9.653421
-4.649539,-15.05474,1.192313
4.242526,-16.539145,-10.836157
6.789956,-6.947972999999999,-3.007117
0.933739,-4.606444000000001,-0.512359
3.2896330000000003,-7.469908999999999,-0.0430959999999999
-1.6519990000000002,-17.535133,-2.2505490000000004
-6.320692,-6.196194,1.896208
-1.331176,-17.956512,-0.632069
12.133814,-18.703505,-7.508216
6.588842999999999,-10.568007,-2.60968
7.996633999999999,-5.918466,-6.646304
0.2585739999999999,-8.657434,-2.351106
-1.94888,-5.003881,2.006341
1.364695,-8.054094000000001,-3.222595
2.0302830000000003,-13.613431,-2.0302830000000003
12.411542,-13.881581,-4.386177
-2.604891,-7.661445,-0.11971
-1.40779,-13.340492,-3.916914
-2.255338,-14.398729,-2.801216
-7.517792999999999,-11.947066,-1.656788
-1.996764,1.393425,2.652776
-4.189853,-10.275913,1.1300629999999998
0.8379709999999999,-11.693281,-1.1300629999999998
-3.122039,-11.985373,-1.393425
-2.078167,-4.209007,-1.244985
-1.877054,-6.943185000000001,-1.915361
-5.473145,-10.730812,-1.077391
2.987964,-5.018246,1.647211
0.675165,-11.60709,-2.662352
-1.278504,-2.700659,0.924162
-4.424484,-10.726024,-1.082179
0.646435,-0.641646,-1.04866
-1.623269,-6.603208,0.071826
-4.323928,-2.671929,3.485958
-5.228936,-3.557784,-0.038307
-3.08852,-14.130578,0.215478
-3.021482,-8.39886,1.312023
-11.238382,-12.018892,-2.762909
-0.488417,-9.356541,0.11971
-7.675811,-17.00362,-1.5466540000000002
-0.521936,0.708684,-5.0517650000000005
-3.715801,-5.645528,0.670377
-1.666364,-9.121908,-2.753332
-6.354211,-5.717354,-0.579397
-3.940856,-12.717999,5.971139
-1.240196,-10.414778,-1.173159
-2.255338,-14.398729,-2.801216
-7.517792999999999,-11.947066,-1.656788
-1.996764,1.393425,2.652776
-4.189853,-10.275913,1.1300629999999998
0.8379709999999999,-11.693281,-1.1300629999999998
-3.122039,-11.985373,-1.393425
-2.078167,-4.209007,-1.244985
-1.877054,-6.943185000000001,-1.915361
-5.473145,-10.730812,-1.077391
2.987964,-5.018246,1.647211
0.675165,-11.60709,-2.662352
-1.278504,-2.700659,0.924162
-4.424484,-10.726024,-1.082179
0.646435,-0.641646,-1.04866
-1.623269,-6.603208,0.071826
-4.323928,-2.671929,3.485958
-5.228936,-3.557784,-0.038307
-3.08852,-14.130578,0.215478
-3.021482,-8.39886,1.312023
-11.238382,-12.018892,-2.762909
-0.488417,-9.356541,0.11971
-7.675811,-17.00362,-1.5466540000000002
-0.521936,0.708684,-5.0517650000000005
-3.715801,-5.645528,0.670377
-1.666364,-9.121908,-2.753332
-6.354211,-5.717354,-0.579397
-3.940856,-12.717999,5.971139
-1.240196,-10.414778,-1.173159
-10.228029,-14.465767,-1.867477
-1.043872,-13.603854,-3.600879
-1.996764,1.393425,2.652776
-4.189853,-10.275913,1.1300629999999998
0.8379709999999999,-11.693281,-1.1300629999999998
-3.122039,-11.985373,-1.393425
-2.078167,-4.209007,-1.244985
-1.877054,-6.943185000000001,-1.915361
-5.473145,-10.730812,-1.077391
2.987964,-5.018246,1.647211
0.675165,-11.60709,-2.662352
-1.278504,-2.700659,0.924162
-4.424484,-10.726024,-1.082179
0.646435,-0.641646,-1.04866
-1.623269,-6.603208,0.071826
-4.323928,-2.671929,3.485958
-5.228936,-3.557784,-0.038307
-3.08852,-14.130578,0.215478
-3.021482,-8.39886,1.312023
-11.238382,-12.018892,-2.762909
-0.488417,-9.356541,0.11971
-7.675811,-17.00362,-1.5466540000000002
-0.521936,0.708684,-5.0517650000000005
-3.715801,-5.645528,0.670377
-1.666364,-9.121908,-2.753332
-6.354211,-5.717354,-0.579397
-3.940856,-12.717999,5.971139
-1.240196,-10.414778,-1.173159
-10.228029,-14.465767,-1.867477
-1.043872,-13.603854,-3.600879
-6.411672,-11.836933,-3.883395
-10.070012,-15.049952,-13.517663
0.8379709999999999,-11.693281,-1.1300629999999998
-3.122039,-11.985373,-1.393425
-2.078167,-4.209007,-1.244985
-1.877054,-6.943185000000001,-1.915361
-5.473145,-10.730812,-1.077391
2.987964,-5.018246,1.647211
0.675165,-11.60709,-2.662352
-1.278504,-2.700659,0.924162
-4.424484,-10.726024,-1.082179
0.646435,-0.641646,-1.04866
-1.623269,-6.603208,0.071826
-4.323928,-2.671929,3.485958
-5.228936,-3.557784,-0.038307
-3.08852,-14.130578,0.215478
-3.021482,-8.39886,1.312023
-11.238382,-12.018892,-2.762909
-0.488417,-9.356541,0.11971
-7.675811,-17.00362,-1.5466540000000002
-0.521936,0.708684,-5.0517650000000005
-3.715801,-5.645528,0.670377
-1.666364,-9.121908,-2.753332
-6.354211,-5.717354,-0.579397
-3.940856,-12.717999,5.971139
-1.240196,-10.414778,-1.173159
-10.228029,-14.465767,-1.867477
-1.043872,-13.603854,-3.600879
-6.411672,-11.836933,-3.883395
-10.070012,-15.049952,-13.517663
-7.929596000000001,-12.253524,-0.263362
-1.929727,-2.806004,-1.795651
-2.078167,-4.209007,-1.244985
-1.877054,-6.943185000000001,-1.915361
-5.473145,-10.730812,-1.077391
2.987964,-5.018246,1.647211
0.675165,-11.60709,-2.662352
-1.278504,-2.700659,0.924162
-4.424484,-10.726024,-1.082179
0.646435,-0.641646,-1.04866
-1.623269,-6.603208,0.071826
-4.323928,-2.671929,3.485958
-5.228936,-3.557784,-0.038307
-3.08852,-14.130578,0.215478
-3.021482,-8.39886,1.312023
-11.238382,-12.018892,-2.762909
-0.488417,-9.356541,0.11971
-7.675811,-17.00362,-1.5466540000000002
-0.521936,0.708684,-5.0517650000000005
-3.715801,-5.645528,0.670377
-1.666364,-9.121908,-2.753332
-6.354211,-5.717354,-0.579397
-3.940856,-12.717999,5.971139
-1.240196,-10.414778,-1.173159
-10.228029,-14.465767,-1.867477
-1.043872,-13.603854,-3.600879
-6.411672,-11.836933,-3.883395
-10.070012,-15.049952,-13.517663
-7.929596000000001,-12.253524,-0.263362
-1.929727,-2.806004,-1.795651
-4.458003,-6.780378999999999,1.580173
-4.13718,-4.429273,-1.517924
-5.473145,-10.730812,-1.077391
2.987964,-5.018246,1.647211
0.675165,-11.60709,-2.662352
-1.278504,-2.700659,0.924162
-4.424484,-10.726024,-1.082179
0.646435,-0.641646,-1.04866
-1.623269,-6.603208,0.071826
-4.323928,-2.671929,3.485958
-5.228936,-3.557784,-0.038307
-3.08852,-14.130578,0.215478
-3.021482,-8.39886,1.312023
-11.238382,-12.018892,-2.762909
-0.488417,-9.356541,0.11971
-7.675811,-17.00362,-1.5466540000000002
-0.521936,0.708684,-5.0517650000000005
-3.715801,-5.645528,0.670377
-1.666364,-9.121908,-2.753332
-6.354211,-5.717354,-0.579397
-3.940856,-12.717999,5.971139
-1.240196,-10.414778,-1.173159
-10.228029,-14.465767,-1.867477
-1.043872,-13.603854,-3.600879
-6.411672,-11.836933,-3.883395
-10.070012,-15.049952,-13.517663
-7.929596000000001,-12.253524,-0.263362
-1.929727,-2.806004,-1.795651
-4.458003,-6.780378999999999,1.580173
-4.13718,-4.429273,-1.517924
1.82917,-9.313444,-0.3304
-7.350199000000001,-12.670115,-1.4604629999999998
0.675165,-11.60709,-2.662352
-1.278504,-2.700659,0.924162
-4.424484,-10.726024,-1.082179
0.646435,-0.641646,-1.04866
-1.623269,-6.603208,0.071826
-4.323928,-2.671929,3.485958
-5.228936,-3.557784,-0.038307
-3.08852,-14.130578,0.215478
-3.021482,-8.39886,1.312023
-11.238382,-12.018892,-2.762909
-0.488417,-9.356541,0.11971
-7.675811,-17.00362,-1.5466540000000002
-0.521936,0.708684,-5.0517650000000005
-3.715801,-5.645528,0.670377
-1.666364,-9.121908,-2.753332
-6.354211,-5.717354,-0.579397
-3.940856,-12.717999,5.971139
-1.240196,-10.414778,-1.173159
-10.228029,-14.465767,-1.867477
-1.043872,-13.603854,-3.600879
-6.411672,-11.836933,-3.883395
-10.070012,-15.049952,-13.517663
-7.929596000000001,-12.253524,-0.263362
-1.929727,-2.806004,-1.795651
-4.458003,-6.780378999999999,1.580173
-4.13718,-4.429273,-1.517924
1.82917,-9.313444,-0.3304
-7.350199000000001,-12.670115,-1.4604629999999998
3.969586,-6.320692,9.255983
1.7477669999999998,2.920926,7.910442999999999
-4.424484,-10.726024,-1.082179
0.646435,-0.641646,-1.04866
-1.623269,-6.603208,0.071826
-4.323928,-2.671929,3.485958
-5.228936,-3.557784,-0.038307
-3.08852,-14.130578,0.215478
-3.021482,-8.39886,1.312023
-11.238382,-12.018892,-2.762909
-0.488417,-9.356541,0.11971
-7.675811,-17.00362,-1.5466540000000002
-0.521936,0.708684,-5.0517650000000005
-3.715801,-5.645528,0.670377
-1.666364,-9.121908,-2.753332
-6.354211,-5.717354,-0.579397
-3.940856,-12.717999,5.971139
-1.240196,-10.414778,-1.173159
-10.228029,-14.465767,-1.867477
-1.043872,-13.603854,-3.600879
-6.411672,-11.836933,-3.883395
-10.070012,-15.049952,-13.517663
-7.929596000000001,-12.253524,-0.263362
-1.929727,-2.806004,-1.795651
-4.458003,-6.780378999999999,1.580173
-4.13718,-4.429273,-1.517924
1.82917,-9.313444,-0.3304
-7.350199000000001,-12.670115,-1.4604629999999998
3.969586,-6.320692,9.255983
1.7477669999999998,2.920926,7.910442999999999
2.75812,1.575385,8.896853
3.332729,2.576161,12.976573
7.11078,-7.972691,3.040636
-0.445322,-3.4811690000000004,1.225831
-1.790863,-7.489063000000001,-1.848324
0.057461,-13.086706,0.981623
-0.402226,-12.028469,-3.117251
2.992752,-10.716447,0.426168
-1.125275,-4.180276,2.418144
4.094085,-6.933608,-4.3574470000000005
2.1787240000000003,-16.232687,-0.287304
0.761356,-19.2829,-0.842759
-7.254430999999999,-15.102624,-2.801216
0.588974,-22.117636,-28.031313
1.3982139999999998,-12.497733,-4.213794999999999
1.762132,-15.083470000000002,-7.560888999999999
5.185841,-13.52724,-2.365471
-1.474828,0.526724,0.038307
0.086191,-10.16578,-0.565032
0.052672,-17.745823,-3.203442
-7.939172,-14.302960999999998,-13.10586
-2.48997,-8.829816000000001,3.193865
0.871489,-11.013328,0.885855
2.686294,-8.963891,-3.883395
1.197101,-10.400413,-6.23929
-4.34787,-6.133945,-2.020706
1.714248,-11.219229,1.063026
-1.94888,-3.064578,-2.513912
1.225831,-5.5545480000000005,-2.317587
0.21069,-10.802638,-1.599327
2.738967,-8.657434,4.031836
4.094085,-11.401189,-0.651223
-1.790863,-7.489063000000001,-1.848324
0.057461,-13.086706,0.981623
-0.402226,-12.028469,-3.117251
2.992752,-10.716447,0.426168
-1.125275,-4.180276,2.418144
4.094085,-6.933608,-4.3574470000000005
2.1787240000000003,-16.232687,-0.287304
0.761356,-19.2829,-0.842759
-7.254430999999999,-15.102624,-2.801216
0.588974,-22.117636,-28.031313
1.3982139999999998,-12.497733,-4.213794999999999
1.762132,-15.083470000000002,-7.560888999999999
5.185841,-13.52724,-2.365471
-1.474828,0.526724,0.038307
0.086191,-10.16578,-0.565032
0.052672,-17.745823,-3.203442
-7.939172,-14.302960999999998,-13.10586
-2.48997,-8.829816000000001,3.193865
0.871489,-11.013328,0.885855
2.686294,-8.963891,-3.883395
1.197101,-10.400413,-6.23929
-4.34787,-6.133945,-2.020706
1.714248,-11.219229,1.063026
-1.94888,-3.064578,-2.513912
1.225831,-5.5545480000000005,-2.317587
0.21069,-10.802638,-1.599327
2.738967,-8.657434,4.031836
4.094085,-11.401189,-0.651223
1.647211,-8.207322999999999,-8.537724
0.277727,-7.067683000000001,-4.893748
1.106121,-7.115567,2.240973
1.355118,-8.667010000000001,1.479617
2.149993,-7.474697,5.93762
8.288725999999999,-10.783484,-3.165135
-0.991199,-19.416977,4.074930999999999
7.062895,-8.063671000000001,-0.972046
0.766145,-4.788403,-0.981623
0.02873,-6.545747,-0.6464340000000001
6.952762,-11.247959,0.344765
6.895301,-13.982138,-2.504335
-1.417367,-19.349937,0.177171
0.320823,-3.715801,-9.653421
-4.649539,-15.05474,1.192313
4.242526,-16.539145,-10.836157
6.789956,-6.947972999999999,-3.007117
0.933739,-4.606444000000001,-0.512359
3.2896330000000003,-7.469908999999999,-0.0430959999999999
-1.6519990000000002,-17.535133,-2.2505490000000004
-6.320692,-6.196194,1.896208
-1.331176,-17.956512,-0.632069
12.133814,-18.703505,-7.508216
6.588842999999999,-10.568007,-2.60968
7.996633999999999,-5.918466,-6.646304
0.2585739999999999,-8.657434,-2.351106
-1.94888,-5.003881,2.006341
1.364695,-8.054094000000001,-3.222595
2.0302830000000003,-13.613431,-2.0302830000000003
12.411542,-13.881581,-4.386177
4.879383,-13.110648,-3.5960910000000004
1.201889,-17.908628,0.004788
-0.402226,-12.028469,-3.117251
2.992752,-10.716447,0.426168
-1.125275,-4.180276,2.418144
4.094085,-6.933608,-4.3574470000000005
2.1787240000000003,-16.232687,-0.287304
0.761356,-19.2829,-0.842759
-7.254430999999999,-15.102624,-2.801216
0.588974,-22.117636,-28.031313
1.3982139999999998,-12.497733,-4.213794999999999
1.762132,-15.083470000000002,-7.560888999999999
5.185841,-13.52724,-2.365471
-1.474828,0.526724,0.038307
0.086191,-10.16578,-0.565032
0.052672,-17.745823,-3.203442
-7.939172,-14.302960999999998,-13.10586
-2.48997,-8.829816000000001,3.193865
0.871489,-11.013328,0.885855
2.686294,-8.963891,-3.883395
1.197101,-10.400413,-6.23929
-4.34787,-6.133945,-2.020706
1.714248,-11.219229,1.063026
-1.94888,-3.064578,-2.513912
1.225831,-5.5545480000000005,-2.317587
0.21069,-10.802638,-1.599327
2.738967,-8.657434,4.031836
4.094085,-11.401189,-0.651223
1.647211,-8.207322999999999,-8.537724
0.277727,-7.067683000000001,-4.893748
1.364695,-8.528147,-6.382941000000001
9.141062,-9.184157,0.42138
-1.125275,-4.180276,2.418144
4.094085,-6.933608,-4.3574470000000005
2.1787240000000003,-16.232687,-0.287304
0.761356,-19.2829,-0.842759
-7.254430999999999,-15.102624,-2.801216
0.588974,-22.117636,-28.031313
1.3982139999999998,-12.497733,-4.213794999999999
1.762132,-15.083470000000002,-7.560888999999999
5.185841,-13.52724,-2.365471
-1.474828,0.526724,0.038307
0.086191,-10.16578,-0.565032
0.052672,-17.745823,-3.203442
-7.939172,-14.302960999999998,-13.10586
-2.48997,-8.829816000000001,3.193865
0.871489,-11.013328,0.885855
2.686294,-8.963891,-3.883395
1.197101,-10.400413,-6.23929
-4.34787,-6.133945,-2.020706
1.714248,-11.219229,1.063026
-1.94888,-3.064578,-2.513912
1.225831,-5.5545480000000005,-2.317587
0.21069,-10.802638,-1.599327
2.738967,-8.657434,4.031836
4.094085,-11.401189,-0.651223
1.647211,-8.207322999999999,-8.537724
0.277727,-7.067683000000001,-4.893748
1.364695,-8.528147,-6.382941000000001
9.141062,-9.184157,0.42138
7.953538000000001,-14.413095000000002,-2.494758
0.651223,-1.40779,4.683059
2.1787240000000003,-16.232687,-0.287304
0.761356,-19.2829,-0.842759
-7.254430999999999,-15.102624,-2.801216
0.588974,-22.117636,-28.031313
1.3982139999999998,-12.497733,-4.213794999999999
1.762132,-15.083470000000002,-7.560888999999999
5.185841,-13.52724,-2.365471
-1.474828,0.526724,0.038307
0.086191,-10.16578,-0.565032
0.052672,-17.745823,-3.203442
-7.939172,-14.302960999999998,-13.10586
-2.48997,-8.829816000000001,3.193865
0.871489,-11.013328,0.885855
2.686294,-8.963891,-3.883395
1.197101,-10.400413,-6.23929
-4.34787,-6.133945,-2.020706
1.714248,-11.219229,1.063026
-1.94888,-3.064578,-2.513912
1.225831,-5.5545480000000005,-2.317587
0.21069,-10.802638,-1.599327
2.738967,-8.657434,4.031836
4.094085,-11.401189,-0.651223
1.647211,-8.207322999999999,-8.537724
0.277727,-7.067683000000001,-4.893748
1.364695,-8.528147,-6.382941000000001
9.141062,-9.184157,0.42138
7.953538000000001,-14.413095000000002,-2.494758
0.651223,-1.40779,4.683059
2.418144,4.994305000000001,13.445837
0.670377,4.730943,8.403648
-7.254430999999999,-15.102624,-2.801216
0.588974,-22.117636,-28.031313
1.3982139999999998,-12.497733,-4.213794999999999
1.762132,-15.083470000000002,-7.560888999999999
5.185841,-13.52724,-2.365471
-1.474828,0.526724,0.038307
0.086191,-10.16578,-0.565032
0.052672,-17.745823,-3.203442
-7.939172,-14.302960999999998,-13.10586
-2.48997,-8.829816000000001,3.193865
0.871489,-11.013328,0.885855
2.686294,-8.963891,-3.883395
1.197101,-10.400413,-6.23929
-4.34787,-6.133945,-2.020706
1.714248,-11.219229,1.063026
-1.94888,-3.064578,-2.513912
1.225831,-5.5545480000000005,-2.317587
0.21069,-10.802638,-1.599327
2.738967,-8.657434,4.031836
4.094085,-11.401189,-0.651223
1.647211,-8.207322999999999,-8.537724
0.277727,-7.067683000000001,-4.893748
1.364695,-8.528147,-6.382941000000001
9.141062,-9.184157,0.42138
7.953538000000001,-14.413095000000002,-2.494758
0.651223,-1.40779,4.683059
2.418144,4.994305000000001,13.445837
0.670377,4.730943,8.403648
0.866701,3.4428620000000003,9.495404
1.479617,4.314352,6.737284
-0.665588,-4.865018,-1.2162540000000002
2.221819,-7.398083,0.8236049999999999
1.972822,-5.6982,-0.081403
0.727837,-6.445191,-1.2162540000000002
3.696648,-12.248735,1.374272
1.1300629999999998,-6.368576,-1.235408
2.394202,-17.520767000000003,0.78051
1.187524,-4.639962000000001,-2.8491
1.072602,-12.325351,0.009577
1.867477,-3.950433,-1.288081
4.88896,-7.010222,-0.062249
4.467581,-9.672575,-1.13964
3.548207,-9.385271,-1.288081
3.438074,-16.864758,-0.3304
3.169923,-2.686294,-4.031835
0.416591,-16.237476,-3.342306
12.196063,-21.049822,-11.789049
6.291962,-11.525687,-0.995988
5.535394,-2.72939,-8.528147
1.359907,-7.752425,0.641646
2.853889,-10.012551,-0.411803
-6.354211,-5.521029,-4.673482
4.76925,-12.799402,1.297657
1.685518,-7.747636999999999,-1.556231
5.133168,-10.261548,-0.8475469999999999
2.777274,-5.204994,-2.590526
2.619257,-9.203311,-1.537077
1.417368,-17.48246,0.234632
-4.76925,-9.591172,6.277597
6.56969,3.016694,1.824382
1.972822,-5.6982,-0.081403
0.727837,-6.445191,-1.2162540000000002
3.696648,-12.248735,1.374272
1.1300629999999998,-6.368576,-1.235408
2.394202,-17.520767000000003,0.78051
1.187524,-4.639962000000001,-2.8491
1.072602,-12.325351,0.009577
1.867477,-3.950433,-1.288081
4.88896,-7.010222,-0.062249
4.467581,-9.672575,-1.13964
3.548207,-9.385271,-1.288081
3.438074,-16.864758,-0.3304
3.169923,-2.686294,-4.031835
0.416591,-16.237476,-3.342306
12.196063,-21.049822,-11.789049
6.291962,-11.525687,-0.995988
5.535394,-2.72939,-8.528147
1.359907,-7.752425,0.641646
2.853889,-10.012551,-0.411803
-6.354211,-5.521029,-4.673482
4.76925,-12.799402,1.297657
1.685518,-7.747636999999999,-1.556231
5.133168,-10.261548,-0.8475469999999999
2.777274,-5.204994,-2.590526
2.619257,-9.203311,-1.537077
1.417368,-17.48246,0.234632
-4.76925,-9.591172,6.277597
6.56969,3.016694,1.824382
3.572149,1.891419,7.192182000000001
3.423709,3.069367,9.504981
2.149993,-7.474697,5.93762
8.288725999999999,-10.783484,-3.165135
-0.991199,-19.416977,4.074930999999999
7.062895,-8.063671000000001,-0.972046
0.766145,-4.788403,-0.981623
0.02873,-6.545747,-0.6464340000000001
6.952762,-11.247959,0.344765
6.895301,-13.982138,-2.504335
-1.417367,-19.349937,0.177171
0.320823,-3.715801,-9.653421
-4.649539,-15.05474,1.192313
4.242526,-16.539145,-10.836157
6.789956,-6.947972999999999,-3.007117
0.933739,-4.606444000000001,-0.512359
3.2896330000000003,-7.469908999999999,-0.0430959999999999
-1.6519990000000002,-17.535133,-2.2505490000000004
-6.320692,-6.196194,1.896208
-1.331176,-17.956512,-0.632069
12.133814,-18.703505,-7.508216
6.588842999999999,-10.568007,-2.60968
7.996633999999999,-5.918466,-6.646304
0.2585739999999999,-8.657434,-2.351106
-1.94888,-5.003881,2.006341
1.364695,-8.054094000000001,-3.222595
2.0302830000000003,-13.613431,-2.0302830000000003
12.411542,-13.881581,-4.386177
4.879383,-13.110648,-3.5960910000000004
1.201889,-17.908628,0.004788
-6.847417,-16.74026,4.13718
-4.003105000000001,1.249773,10.716447
-0.991199,-19.416977,4.074930999999999
7.062895,-8.063671000000001,-0.972046
0.766145,-4.788403,-0.981623
0.02873,-6.545747,-0.6464340000000001
6.952762,-11.247959,0.344765
6.895301,-13.982138,-2.504335
-1.417367,-19.349937,0.177171
0.320823,-3.715801,-9.653421
-4.649539,-15.05474,1.192313
4.242526,-16.539145,-10.836157
6.789956,-6.947972999999999,-3.007117
0.933739,-4.606444000000001,-0.512359
3.2896330000000003,-7.469908999999999,-0.0430959999999999
-1.6519990000000002,-17.535133,-2.2505490000000004
-6.320692,-6.196194,1.896208
-1.331176,-17.956512,-0.632069
12.133814,-18.703505,-7.508216
6.588842999999999,-10.568007,-2.60968
7.996633999999999,-5.918466,-6.646304
0.2585739999999999,-8.657434,-2.351106
-1.94888,-5.003881,2.006341
1.364695,-8.054094000000001,-3.222595
2.0302830000000003,-13.613431,-2.0302830000000003
12.411542,-13.881581,-4.386177
4.879383,-13.110648,-3.5960910000000004
1.201889,-17.908628,0.004788
-6.847417,-16.74026,4.13718
-4.003105000000001,1.249773,10.716447
3.0502130000000003,-11.482592,-4.683058
8.532935,-14.571112,-11.492168
0.766145,-4.788403,-0.981623
0.02873,-6.545747,-0.6464340000000001
6.952762,-11.247959,0.344765
6.895301,-13.982138,-2.504335
-1.417367,-19.349937,0.177171
0.320823,-3.715801,-9.653421
-4.649539,-15.05474,1.192313
4.242526,-16.539145,-10.836157
6.789956,-6.947972999999999,-3.007117
0.933739,-4.606444000000001,-0.512359
3.2896330000000003,-7.469908999999999,-0.0430959999999999
-1.6519990000000002,-17.535133,-2.2505490000000004
-6.320692,-6.196194,1.896208
-1.331176,-17.956512,-0.632069
12.133814,-18.703505,-7.508216
6.588842999999999,-10.568007,-2.60968
7.996633999999999,-5.918466,-6.646304
0.2585739999999999,-8.657434,-2.351106
-1.94888,-5.003881,2.006341
1.364695,-8.054094000000001,-3.222595
2.0302830000000003,-13.613431,-2.0302830000000003
12.411542,-13.881581,-4.386177
4.879383,-13.110648,-3.5960910000000004
1.201889,-17.908628,0.004788
-6.847417,-16.74026,4.13718
-4.003105000000001,1.249773,10.716447
3.0502130000000003,-11.482592,-4.683058
8.532935,-14.571112,-11.492168
2.1883,-8.987833,-1.273715
1.101333,-3.648763,0.416591
6.301539,-1.154005,0.067038
4.534618,-5.755661,-1.369483
4.563349,-3.730166000000001,-0.02873
-0.972046,-6.660669,-2.954445
-2.8682540000000003,-5.4970870000000005,0.23942
2.767697,-4.932055,0.110133
2.470816,-7.718906,2.949657
4.941633,-6.833050999999999,-1.6998830000000005
1.1683709999999998,-9.816227,1.910573
8.073248,-5.856217,-1.359906
3.366248,-16.82645,1.1683709999999998
7.015011,-16.845604,-7.517792999999999
4.697424,-9.074024,-0.866701
-1.5466540000000002,-1.508347,0.3304
3.830723,-12.014104,-1.158794
2.418144,-9.002198,0.8236049999999999
3.529053,-7.436389999999999,1.905785
0.986411,-17.3005,-0.3830719999999999
-4.582502,-7.862558,9.792285
1.910573,-5.985504,-1.599327
4.458004,-6.914453999999999,-5.401319
2.475605,-8.705316999999999,-0.3734949999999999
-1.120486,-5.803545,2.044648
-2.39899,-8.451532,4.055778
5.64074,-8.566454,1.029507
-0.8283940000000001,-0.483629,10.582372
4.491523,-7.393294999999999,-1.58975
4.97994,-10.127473,-14.422671
1.106121,-7.115567,2.240973
1.355118,-8.667010000000001,1.479617
6.952762,-11.247959,0.344765
6.895301,-13.982138,-2.504335
-1.417367,-19.349937,0.177171
0.320823,-3.715801,-9.653421
-4.649539,-15.05474,1.192313
4.242526,-16.539145,-10.836157
6.789956,-6.947972999999999,-3.007117
0.933739,-4.606444000000001,-0.512359
3.2896330000000003,-7.469908999999999,-0.0430959999999999
-1.6519990000000002,-17.535133,-2.2505490000000004
-6.320692,-6.196194,1.896208
-1.331176,-17.956512,-0.632069
12.133814,-18.703505,-7.508216
6.588842999999999,-10.568007,-2.60968
7.996633999999999,-5.918466,-6.646304
0.2585739999999999,-8.657434,-2.351106
-1.94888,-5.003881,2.006341
1.364695,-8.054094000000001,-3.222595
2.0302830000000003,-13.613431,-2.0302830000000003
12.411542,-13.881581,-4.386177
4.879383,-13.110648,-3.5960910000000004
1.201889,-17.908628,0.004788
-6.847417,-16.74026,4.13718
-4.003105000000001,1.249773,10.716447
3.0502130000000003,-11.482592,-4.683058
8.532935,-14.571112,-11.492168
2.1883,-8.987833,-1.273715
1.101333,-3.648763,0.416591
4.276045,-9.346964,0.502782
-3.77805,-3.605668,2.475605
-1.417367,-19.349937,0.177171
0.320823,-3.715801,-9.653421
-4.649539,-15.05474,1.192313
4.242526,-16.539145,-10.836157
6.789956,-6.947972999999999,-3.007117
0.933739,-4.606444000000001,-0.512359
3.2896330000000003,-7.469908999999999,-0.0430959999999999
-1.6519990000000002,-17.535133,-2.2505490000000004
-6.320692,-6.196194,1.896208
-1.331176,-17.956512,-0.632069
12.133814,-18.703505,-7.508216
6.588842999999999,-10.568007,-2.60968
7.996633999999999,-5.918466,-6.646304
0.2585739999999999,-8.657434,-2.351106
-1.94888,-5.003881,2.006341
1.364695,-8.054094000000001,-3.222595
2.0302830000000003,-13.613431,-2.0302830000000003
12.411542,-13.881581,-4.386177
4.879383,-13.110648,-3.5960910000000004
1.201889,-17.908628,0.004788
-6.847417,-16.74026,4.13718
-4.003105000000001,1.249773,10.716447
3.0502130000000003,-11.482592,-4.683058
8.532935,-14.571112,-11.492168
2.1883,-8.987833,-1.273715
1.101333,-3.648763,0.416591
4.276045,-9.346964,0.502782
-3.77805,-3.605668,2.475605
2.236184,-7.388506,-1.173159
-4.094085,-1.441309,2.13084
-4.649539,-15.05474,1.192313
4.242526,-16.539145,-10.836157
6.789956,-6.947972999999999,-3.007117
0.933739,-4.606444000000001,-0.512359
3.2896330000000003,-7.469908999999999,-0.0430959999999999
-1.6519990000000002,-17.535133,-2.2505490000000004
-6.320692,-6.196194,1.896208
-1.331176,-17.956512,-0.632069
12.133814,-18.703505,-7.508216
6.588842999999999,-10.568007,-2.60968
7.996633999999999,-5.918466,-6.646304
0.2585739999999999,-8.657434,-2.351106
-1.94888,-5.003881,2.006341
1.364695,-8.054094000000001,-3.222595
2.0302830000000003,-13.613431,-2.0302830000000003
12.411542,-13.881581,-4.386177
4.879383,-13.110648,-3.5960910000000004
1.201889,-17.908628,0.004788
-6.847417,-16.74026,4.13718
-4.003105000000001,1.249773,10.716447
3.0502130000000003,-11.482592,-4.683058
8.532935,-14.571112,-11.492168
2.1883,-8.987833,-1.273715
1.101333,-3.648763,0.416591
4.276045,-9.346964,0.502782
-3.77805,-3.605668,2.475605
2.236184,-7.388506,-1.173159
-4.094085,-1.441309,2.13084
2.011129,-12.564771,0.8236049999999999
-0.071826,-13.733141,2.652776
6.789956,-6.947972999999999,-3.007117
0.933739,-4.606444000000001,-0.512359
3.2896330000000003,-7.469908999999999,-0.0430959999999999
-1.6519990000000002,-17.535133,-2.2505490000000004
-6.320692,-6.196194,1.896208
-1.331176,-17.956512,-0.632069
12.133814,-18.703505,-7.508216
6.588842999999999,-10.568007,-2.60968
7.996633999999999,-5.918466,-6.646304
0.2585739999999999,-8.657434,-2.351106
-1.94888,-5.003881,2.006341
1.364695,-8.054094000000001,-3.222595
2.0302830000000003,-13.613431,-2.0302830000000003
12.411542,-13.881581,-4.386177
4.879383,-13.110648,-3.5960910000000004
1.201889,-17.908628,0.004788
-6.847417,-16.74026,4.13718
-4.003105000000001,1.249773,10.716447
3.0502130000000003,-11.482592,-4.683058
8.532935,-14.571112,-11.492168
2.1883,-8.987833,-1.273715
1.101333,-3.648763,0.416591
4.276045,-9.346964,0.502782
-3.77805,-3.605668,2.475605
2.236184,-7.388506,-1.173159
-4.094085,-1.441309,2.13084
2.011129,-12.564771,0.8236049999999999
-0.071826,-13.733141,2.652776
1.996764,-6.062118,-6.210559
3.438074,-7.139508999999999,0.292093
3.2896330000000003,-7.469908999999999,-0.0430959999999999
-1.6519990000000002,-17.535133,-2.2505490000000004
-6.320692,-6.196194,1.896208
-1.331176,-17.956512,-0.632069
12.133814,-18.703505,-7.508216
6.588842999999999,-10.568007,-2.60968
7.996633999999999,-5.918466,-6.646304
0.2585739999999999,-8.657434,-2.351106
-1.94888,-5.003881,2.006341
1.364695,-8.054094000000001,-3.222595
2.0302830000000003,-13.613431,-2.0302830000000003
12.411542,-13.881581,-4.386177
4.879383,-13.110648,-3.5960910000000004
1.201889,-17.908628,0.004788
-6.847417,-16.74026,4.13718
-4.003105000000001,1.249773,10.716447
3.0502130000000003,-11.482592,-4.683058
8.532935,-14.571112,-11.492168
2.1883,-8.987833,-1.273715
1.101333,-3.648763,0.416591
4.276045,-9.346964,0.502782
-3.77805,-3.605668,2.475605
2.236184,-7.388506,-1.173159
-4.094085,-1.441309,2.13084
2.011129,-12.564771,0.8236049999999999
-0.071826,-13.733141,2.652776
1.996764,-6.062118,-6.210559
3.438074,-7.139508999999999,0.292093
12.650962,1.61848,10.716447
7.402872,-7.771578999999999,-4.127603
-6.320692,-6.196194,1.896208
-1.331176,-17.956512,-0.632069
12.133814,-18.703505,-7.508216
6.588842999999999,-10.568007,-2.60968
7.996633999999999,-5.918466,-6.646304
0.2585739999999999,-8.657434,-2.351106
-1.94888,-5.003881,2.006341
1.364695,-8.054094000000001,-3.222595
2.0302830000000003,-13.613431,-2.0302830000000003
12.411542,-13.881581,-4.386177
4.879383,-13.110648,-3.5960910000000004
1.201889,-17.908628,0.004788
-6.847417,-16.74026,4.13718
-4.003105000000001,1.249773,10.716447
3.0502130000000003,-11.482592,-4.683058
8.532935,-14.571112,-11.492168
2.1883,-8.987833,-1.273715
1.101333,-3.648763,0.416591
4.276045,-9.346964,0.502782
-3.77805,-3.605668,2.475605
2.236184,-7.388506,-1.173159
-4.094085,-1.441309,2.13084
2.011129,-12.564771,0.8236049999999999
-0.071826,-13.733141,2.652776
1.996764,-6.062118,-6.210559
3.438074,-7.139508999999999,0.292093
12.650962,1.61848,10.716447
7.402872,-7.771578999999999,-4.127603
2.920926,-8.571242,-7.881711999999999
2.767697,-8.935161,-2.149993
12.133814,-18.703505,-7.508216
6.588842999999999,-10.568007,-2.60968
7.996633999999999,-5.918466,-6.646304
0.2585739999999999,-8.657434,-2.351106
-1.94888,-5.003881,2.006341
1.364695,-8.054094000000001,-3.222595
2.0302830000000003,-13.613431,-2.0302830000000003
12.411542,-13.881581,-4.386177
4.879383,-13.110648,-3.5960910000000004
1.201889,-17.908628,0.004788
-6.847417,-16.74026,4.13718
-4.003105000000001,1.249773,10.716447
3.0502130000000003,-11.482592,-4.683058
8.532935,-14.571112,-11.492168
2.1883,-8.987833,-1.273715
1.101333,-3.648763,0.416591
4.276045,-9.346964,0.502782
-3.77805,-3.605668,2.475605
2.236184,-7.388506,-1.173159
-4.094085,-1.441309,2.13084
2.011129,-12.564771,0.8236049999999999
-0.071826,-13.733141,2.652776
1.996764,-6.062118,-6.210559
3.438074,-7.139508999999999,0.292093
12.650962,1.61848,10.716447
7.402872,-7.771578999999999,-4.127603
2.920926,-8.571242,-7.881711999999999
2.767697,-8.935161,-2.149993
-1.101333,-13.939042,-0.948104
1.532289,-6.2153480000000005,-5.928043
7.996633999999999,-5.918466,-6.646304
0.2585739999999999,-8.657434,-2.351106
-1.94888,-5.003881,2.006341
1.364695,-8.054094000000001,-3.222595
2.0302830000000003,-13.613431,-2.0302830000000003
12.411542,-13.881581,-4.386177
4.879383,-13.110648,-3.5960910000000004
1.201889,-17.908628,0.004788
-6.847417,-16.74026,4.13718
-4.003105000000001,1.249773,10.716447
3.0502130000000003,-11.482592,-4.683058
8.532935,-14.571112,-11.492168
2.1883,-8.987833,-1.273715
1.101333,-3.648763,0.416591
4.276045,-9.346964,0.502782
-3.77805,-3.605668,2.475605
2.236184,-7.388506,-1.173159
-4.094085,-1.441309,2.13084
2.011129,-12.564771,0.8236049999999999
-0.071826,-13.733141,2.652776
1.996764,-6.062118,-6.210559
3.438074,-7.139508999999999,0.292093
12.650962,1.61848,10.716447
7.402872,-7.771578999999999,-4.127603
2.920926,-8.571242,-7.881711999999999
2.767697,-8.935161,-2.149993
-1.101333,-13.939042,-0.948104
1.532289,-6.2153480000000005,-5.928043
2.652776,-5.865794,-3.227384
-0.737414,-3.86903,-1.4987700000000002
-1.94888,-5.003881,2.006341
1.364695,-8.054094000000001,-3.222595
2.0302830000000003,-13.613431,-2.0302830000000003
12.411542,-13.881581,-4.386177
4.879383,-13.110648,-3.5960910000000004
1.201889,-17.908628,0.004788
-6.847417,-16.74026,4.13718
-4.003105000000001,1.249773,10.716447
3.0502130000000003,-11.482592,-4.683058
8.532935,-14.571112,-11.492168
2.1883,-8.987833,-1.273715
1.101333,-3.648763,0.416591
4.276045,-9.346964,0.502782
-3.77805,-3.605668,2.475605
2.236184,-7.388506,-1.173159
-4.094085,-1.441309,2.13084
2.011129,-12.564771,0.8236049999999999
-0.071826,-13.733141,2.652776
1.996764,-6.062118,-6.210559
3.438074,-7.139508999999999,0.292093
12.650962,1.61848,10.716447
7.402872,-7.771578999999999,-4.127603
2.920926,-8.571242,-7.881711999999999
2.767697,-8.935161,-2.149993
-1.101333,-13.939042,-0.948104
1.532289,-6.2153480000000005,-5.928043
2.652776,-5.865794,-3.227384
-0.737414,-3.86903,-1.4987700000000002
3.677494,-6.8761470000000005,-2.782062
0.612916,-3.744531,-0.507571
2.0302830000000003,-13.613431,-2.0302830000000003
12.411542,-13.881581,-4.386177
4.879383,-13.110648,-3.5960910000000004
1.201889,-17.908628,0.004788
-6.847417,-16.74026,4.13718
-4.003105000000001,1.249773,10.716447
3.0502130000000003,-11.482592,-4.683058
8.532935,-14.571112,-11.492168
2.1883,-8.987833,-1.273715
1.101333,-3.648763,0.416591
4.276045,-9.346964,0.502782
-3.77805,-3.605668,2.475605
2.236184,-7.388506,-1.173159
-4.094085,-1.441309,2.13084
2.011129,-12.564771,0.8236049999999999
-0.071826,-13.733141,2.652776
1.996764,-6.062118,-6.210559
3.438074,-7.139508999999999,0.292093
12.650962,1.61848,10.716447
7.402872,-7.771578999999999,-4.127603
2.920926,-8.571242,-7.881711999999999
2.767697,-8.935161,-2.149993
-1.101333,-13.939042,-0.948104
1.532289,-6.2153480000000005,-5.928043
2.652776,-5.865794,-3.227384
-0.737414,-3.86903,-1.4987700000000002
3.677494,-6.8761470000000005,-2.782062
0.612916,-3.744531,-0.507571
0.052672,-8.403648,-4.185065
-1.843535,-3.892972,-1.929727
4.563349,-3.730166000000001,-0.02873
-0.972046,-6.660669,-2.954445
-2.8682540000000003,-5.4970870000000005,0.23942
2.767697,-4.932055,0.110133
2.470816,-7.718906,2.949657
4.941633,-6.833050999999999,-1.6998830000000005
1.1683709999999998,-9.816227,1.910573
8.073248,-5.856217,-1.359906
3.366248,-16.82645,1.1683709999999998
7.015011,-16.845604,-7.517792999999999
4.697424,-9.074024,-0.866701
-1.5466540000000002,-1.508347,0.3304
3.830723,-12.014104,-1.158794
2.418144,-9.002198,0.8236049999999999
3.529053,-7.436389999999999,1.905785
0.986411,-17.3005,-0.3830719999999999
-4.582502,-7.862558,9.792285
1.910573,-5.985504,-1.599327
4.458004,-6.914453999999999,-5.401319
2.475605,-8.705316999999999,-0.3734949999999999
-1.120486,-5.803545,2.044648
-2.39899,-8.451532,4.055778
5.64074,-8.566454,1.029507
-0.8283940000000001,-0.483629,10.582372
4.491523,-7.393294999999999,-1.58975
4.97994,-10.127473,-14.422671
1.106121,-7.115567,2.240973
1.355118,-8.667010000000001,1.479617
2.149993,-7.474697,5.93762
8.288725999999999,-10.783484,-3.165135
4.879383,-13.110648,-3.5960910000000004
1.201889,-17.908628,0.004788
-6.847417,-16.74026,4.13718
-4.003105000000001,1.249773,10.716447
3.0502130000000003,-11.482592,-4.683058
8.532935,-14.571112,-11.492168
2.1883,-8.987833,-1.273715
1.101333,-3.648763,0.416591
4.276045,-9.346964,0.502782
-3.77805,-3.605668,2.475605
2.236184,-7.388506,-1.173159
-4.094085,-1.441309,2.13084
2.011129,-12.564771,0.8236049999999999
-0.071826,-13.733141,2.652776
1.996764,-6.062118,-6.210559
3.438074,-7.139508999999999,0.292093
12.650962,1.61848,10.716447
7.402872,-7.771578999999999,-4.127603
2.920926,-8.571242,-7.881711999999999
2.767697,-8.935161,-2.149993
-1.101333,-13.939042,-0.948104
1.532289,-6.2153480000000005,-5.928043
2.652776,-5.865794,-3.227384
-0.737414,-3.86903,-1.4987700000000002
3.677494,-6.8761470000000005,-2.782062
0.612916,-3.744531,-0.507571
0.052672,-8.403648,-4.185065
-1.843535,-3.892972,-1.929727
0.665588,-6.809108999999999,-1.939303
-2.011129,-4.232949,-0.919373
-6.847417,-16.74026,4.13718
-4.003105000000001,1.249773,10.716447
3.0502130000000003,-11.482592,-4.683058
8.532935,-14.571112,-11.492168
2.1883,-8.987833,-1.273715
1.101333,-3.648763,0.416591
4.276045,-9.346964,0.502782
-3.77805,-3.605668,2.475605
2.236184,-7.388506,-1.173159
-4.094085,-1.441309,2.13084
2.011129,-12.564771,0.8236049999999999
-0.071826,-13.733141,2.652776
1.996764,-6.062118,-6.210559
3.438074,-7.139508999999999,0.292093
12.650962,1.61848,10.716447
7.402872,-7.771578999999999,-4.127603
2.920926,-8.571242,-7.881711999999999
2.767697,-8.935161,-2.149993
-1.101333,-13.939042,-0.948104
1.532289,-6.2153480000000005,-5.928043
2.652776,-5.865794,-3.227384
-0.737414,-3.86903,-1.4987700000000002
3.677494,-6.8761470000000005,-2.782062
0.612916,-3.744531,-0.507571
0.052672,-8.403648,-4.185065
-1.843535,-3.892972,-1.929727
0.665588,-6.809108999999999,-1.939303
-2.011129,-4.232949,-0.919373
2.432509,-10.304645,-1.671153
0.588974,-5.999869,-2.327164
3.0502130000000003,-11.482592,-4.683058
8.532935,-14.571112,-11.492168
2.1883,-8.987833,-1.273715
1.101333,-3.648763,0.416591
4.276045,-9.346964,0.502782
-3.77805,-3.605668,2.475605
2.236184,-7.388506,-1.173159
-4.094085,-1.441309,2.13084
2.011129,-12.564771,0.8236049999999999
-0.071826,-13.733141,2.652776
1.996764,-6.062118,-6.210559
3.438074,-7.139508999999999,0.292093
12.650962,1.61848,10.716447
7.402872,-7.771578999999999,-4.127603
2.920926,-8.571242,-7.881711999999999
2.767697,-8.935161,-2.149993
-1.101333,-13.939042,-0.948104
1.532289,-6.2153480000000005,-5.928043
2.652776,-5.865794,-3.227384
-0.737414,-3.86903,-1.4987700000000002
3.677494,-6.8761470000000005,-2.782062
0.612916,-3.744531,-0.507571
0.052672,-8.403648,-4.185065
-1.843535,-3.892972,-1.929727
0.665588,-6.809108999999999,-1.939303
-2.011129,-4.232949,-0.919373
2.432509,-10.304645,-1.671153
0.588974,-5.999869,-2.327164
1.431733,-8.27436,-1.73819
-1.7860740000000002,-7.996633,-3.3279400000000003
2.1883,-8.987833,-1.273715
1.101333,-3.648763,0.416591
4.276045,-9.346964,0.502782
-3.77805,-3.605668,2.475605
2.236184,-7.388506,-1.173159
-4.094085,-1.441309,2.13084
2.011129,-12.564771,0.8236049999999999
-0.071826,-13.733141,2.652776
1.996764,-6.062118,-6.210559
3.438074,-7.139508999999999,0.292093
12.650962,1.61848,10.716447
7.402872,-7.771578999999999,-4.127603
2.920926,-8.571242,-7.881711999999999
2.767697,-8.935161,-2.149993
-1.101333,-13.939042,-0.948104
1.532289,-6.2153480000000005,-5.928043
2.652776,-5.865794,-3.227384
-0.737414,-3.86903,-1.4987700000000002
3.677494,-6.8761470000000005,-2.782062
0.612916,-3.744531,-0.507571
0.052672,-8.403648,-4.185065
-1.843535,-3.892972,-1.929727
0.665588,-6.809108999999999,-1.939303
-2.011129,-4.232949,-0.919373
2.432509,-10.304645,-1.671153
0.588974,-5.999869,-2.327164
1.431733,-8.27436,-1.73819
-1.7860740000000002,-7.996633,-3.3279400000000003
0.885855,-11.468226,5.544971
-0.770933,-21.74414,-3.605668
4.276045,-9.346964,0.502782
-3.77805,-3.605668,2.475605
2.236184,-7.388506,-1.173159
-4.094085,-1.441309,2.13084
2.011129,-12.564771,0.8236049999999999
-0.071826,-13.733141,2.652776
1.996764,-6.062118,-6.210559
3.438074,-7.139508999999999,0.292093
12.650962,1.61848,10.716447
7.402872,-7.771578999999999,-4.127603
2.920926,-8.571242,-7.881711999999999
2.767697,-8.935161,-2.149993
-1.101333,-13.939042,-0.948104
1.532289,-6.2153480000000005,-5.928043
2.652776,-5.865794,-3.227384
-0.737414,-3.86903,-1.4987700000000002
3.677494,-6.8761470000000005,-2.782062
0.612916,-3.744531,-0.507571
0.052672,-8.403648,-4.185065
-1.843535,-3.892972,-1.929727
0.665588,-6.809108999999999,-1.939303
-2.011129,-4.232949,-0.919373
2.432509,-10.304645,-1.671153
0.588974,-5.999869,-2.327164
1.431733,-8.27436,-1.73819
-1.7860740000000002,-7.996633,-3.3279400000000003
0.885855,-11.468226,5.544971
-0.770933,-21.74414,-3.605668
6.670246000000001,-13.206416,-4.611232
0.675165,-17.343597,-7.225700999999999
2.236184,-7.388506,-1.173159
-4.094085,-1.441309,2.13084
2.011129,-12.564771,0.8236049999999999
-0.071826,-13.733141,2.652776
1.996764,-6.062118,-6.210559
3.438074,-7.139508999999999,0.292093
12.650962,1.61848,10.716447
7.402872,-7.771578999999999,-4.127603
2.920926,-8.571242,-7.881711999999999
2.767697,-8.935161,-2.149993
-1.101333,-13.939042,-0.948104
1.532289,-6.2153480000000005,-5.928043
2.652776,-5.865794,-3.227384
-0.737414,-3.86903,-1.4987700000000002
3.677494,-6.8761470000000005,-2.782062
0.612916,-3.744531,-0.507571
0.052672,-8.403648,-4.185065
-1.843535,-3.892972,-1.929727
0.665588,-6.809108999999999,-1.939303
-2.011129,-4.232949,-0.919373
2.432509,-10.304645,-1.671153
0.588974,-5.999869,-2.327164
1.431733,-8.27436,-1.73819
-1.7860740000000002,-7.996633,-3.3279400000000003
0.885855,-11.468226,5.544971
-0.770933,-21.74414,-3.605668
6.670246000000001,-13.206416,-4.611232
0.675165,-17.343597,-7.225700999999999
7.771578999999999,-8.580819,12.650962
3.873819,-6.162675,-6.210559
2.011129,-12.564771,0.8236049999999999
-0.071826,-13.733141,2.652776
1.996764,-6.062118,-6.210559
3.438074,-7.139508999999999,0.292093
12.650962,1.61848,10.716447
7.402872,-7.771578999999999,-4.127603
2.920926,-8.571242,-7.881711999999999
2.767697,-8.935161,-2.149993
-1.101333,-13.939042,-0.948104
1.532289,-6.2153480000000005,-5.928043
2.652776,-5.865794,-3.227384
-0.737414,-3.86903,-1.4987700000000002
3.677494,-6.8761470000000005,-2.782062
0.612916,-3.744531,-0.507571
0.052672,-8.403648,-4.185065
-1.843535,-3.892972,-1.929727
0.665588,-6.809108999999999,-1.939303
-2.011129,-4.232949,-0.919373
2.432509,-10.304645,-1.671153
0.588974,-5.999869,-2.327164
1.431733,-8.27436,-1.73819
-1.7860740000000002,-7.996633,-3.3279400000000003
0.885855,-11.468226,5.544971
-0.770933,-21.74414,-3.605668
6.670246000000001,-13.206416,-4.611232
0.675165,-17.343597,-7.225700999999999
7.771578999999999,-8.580819,12.650962
3.873819,-6.162675,-6.210559
3.193865,-12.392388,2.5953150000000003
4.951209,-25.828648,-7.991845
1.996764,-6.062118,-6.210559
3.438074,-7.139508999999999,0.292093
12.650962,1.61848,10.716447
7.402872,-7.771578999999999,-4.127603
2.920926,-8.571242,-7.881711999999999
2.767697,-8.935161,-2.149993
-1.101333,-13.939042,-0.948104
1.532289,-6.2153480000000005,-5.928043
2.652776,-5.865794,-3.227384
-0.737414,-3.86903,-1.4987700000000002
3.677494,-6.8761470000000005,-2.782062
0.612916,-3.744531,-0.507571
0.052672,-8.403648,-4.185065
-1.843535,-3.892972,-1.929727
0.665588,-6.809108999999999,-1.939303
-2.011129,-4.232949,-0.919373
2.432509,-10.304645,-1.671153
0.588974,-5.999869,-2.327164
1.431733,-8.27436,-1.73819
-1.7860740000000002,-7.996633,-3.3279400000000003
0.885855,-11.468226,5.544971
-0.770933,-21.74414,-3.605668
6.670246000000001,-13.206416,-4.611232
0.675165,-17.343597,-7.225700999999999
7.771578999999999,-8.580819,12.650962
3.873819,-6.162675,-6.210559
3.193865,-12.392388,2.5953150000000003
4.951209,-25.828648,-7.991845
7.484275,-14.887146,2.973599
4.797981,-19.560625,-9.227253
12.650962,1.61848,10.716447
7.402872,-7.771578999999999,-4.127603
2.920926,-8.571242,-7.881711999999999
2.767697,-8.935161,-2.149993
-1.101333,-13.939042,-0.948104
1.532289,-6.2153480000000005,-5.928043
2.652776,-5.865794,-3.227384
-0.737414,-3.86903,-1.4987700000000002
3.677494,-6.8761470000000005,-2.782062
0.612916,-3.744531,-0.507571
0.052672,-8.403648,-4.185065
-1.843535,-3.892972,-1.929727
0.665588,-6.809108999999999,-1.939303
-2.011129,-4.232949,-0.919373
2.432509,-10.304645,-1.671153
0.588974,-5.999869,-2.327164
1.431733,-8.27436,-1.73819
-1.7860740000000002,-7.996633,-3.3279400000000003
0.885855,-11.468226,5.544971
-0.770933,-21.74414,-3.605668
6.670246000000001,-13.206416,-4.611232
0.675165,-17.343597,-7.225700999999999
7.771578999999999,-8.580819,12.650962
3.873819,-6.162675,-6.210559
3.193865,-12.392388,2.5953150000000003
4.951209,-25.828648,-7.991845
7.484275,-14.887146,2.973599
4.797981,-19.560625,-9.227253
-0.933739,-9.188946,10.007763
4.347871,-7.354986999999999,-6.277597
2.920926,-8.571242,-7.881711999999999
2.767697,-8.935161,-2.149993
-1.101333,-13.939042,-0.948104
1.532289,-6.2153480000000005,-5.928043
2.652776,-5.865794,-3.227384
-0.737414,-3.86903,-1.4987700000000002
3.677494,-6.8761470000000005,-2.782062
0.612916,-3.744531,-0.507571
0.052672,-8.403648,-4.185065
-1.843535,-3.892972,-1.929727
0.665588,-6.809108999999999,-1.939303
-2.011129,-4.232949,-0.919373
2.432509,-10.304645,-1.671153
0.588974,-5.999869,-2.327164
1.431733,-8.27436,-1.73819
-1.7860740000000002,-7.996633,-3.3279400000000003
0.885855,-11.468226,5.544971
-0.770933,-21.74414,-3.605668
6.670246000000001,-13.206416,-4.611232
0.675165,-17.343597,-7.225700999999999
7.771578999999999,-8.580819,12.650962
3.873819,-6.162675,-6.210559
3.193865,-12.392388,2.5953150000000003
4.951209,-25.828648,-7.991845
7.484275,-14.887146,2.973599
4.797981,-19.560625,-9.227253
-0.933739,-9.188946,10.007763
4.347871,-7.354986999999999,-6.277597
5.061342,-13.785813,10.333375
2.499547,-4.788403,0.019154
-2.8682540000000003,-5.4970870000000005,0.23942
2.767697,-4.932055,0.110133
2.470816,-7.718906,2.949657
4.941633,-6.833050999999999,-1.6998830000000005
1.1683709999999998,-9.816227,1.910573
8.073248,-5.856217,-1.359906
3.366248,-16.82645,1.1683709999999998
7.015011,-16.845604,-7.517792999999999
4.697424,-9.074024,-0.866701
-1.5466540000000002,-1.508347,0.3304
3.830723,-12.014104,-1.158794
2.418144,-9.002198,0.8236049999999999
3.529053,-7.436389999999999,1.905785
0.986411,-17.3005,-0.3830719999999999
-4.582502,-7.862558,9.792285
1.910573,-5.985504,-1.599327
4.458004,-6.914453999999999,-5.401319
2.475605,-8.705316999999999,-0.3734949999999999
-1.120486,-5.803545,2.044648
-2.39899,-8.451532,4.055778
5.64074,-8.566454,1.029507
-0.8283940000000001,-0.483629,10.582372
4.491523,-7.393294999999999,-1.58975
4.97994,-10.127473,-14.422671
1.106121,-7.115567,2.240973
1.355118,-8.667010000000001,1.479617
2.149993,-7.474697,5.93762
8.288725999999999,-10.783484,-3.165135
-0.991199,-19.416977,4.074930999999999
7.062895,-8.063671000000001,-0.972046
-1.101333,-13.939042,-0.948104
1.532289,-6.2153480000000005,-5.928043
2.652776,-5.865794,-3.227384
-0.737414,-3.86903,-1.4987700000000002
3.677494,-6.8761470000000005,-2.782062
0.612916,-3.744531,-0.507571
0.052672,-8.403648,-4.185065
-1.843535,-3.892972,-1.929727
0.665588,-6.809108999999999,-1.939303
-2.011129,-4.232949,-0.919373
2.432509,-10.304645,-1.671153
0.588974,-5.999869,-2.327164
1.431733,-8.27436,-1.73819
-1.7860740000000002,-7.996633,-3.3279400000000003
0.885855,-11.468226,5.544971
-0.770933,-21.74414,-3.605668
6.670246000000001,-13.206416,-4.611232
0.675165,-17.343597,-7.225700999999999
7.771578999999999,-8.580819,12.650962
3.873819,-6.162675,-6.210559
3.193865,-12.392388,2.5953150000000003
4.951209,-25.828648,-7.991845
7.484275,-14.887146,2.973599
4.797981,-19.560625,-9.227253
-0.933739,-9.188946,10.007763
4.347871,-7.354986999999999,-6.277597
5.061342,-13.785813,10.333375
2.499547,-4.788403,0.019154
5.923255,-18.195932,10.486604
2.5953150000000003,-7.762002000000001,-10.606314
2.652776,-5.865794,-3.227384
-0.737414,-3.86903,-1.4987700000000002
3.677494,-6.8761470000000005,-2.782062
0.612916,-3.744531,-0.507571
0.052672,-8.403648,-4.185065
-1.843535,-3.892972,-1.929727
0.665588,-6.809108999999999,-1.939303
-2.011129,-4.232949,-0.919373
2.432509,-10.304645,-1.671153
0.588974,-5.999869,-2.327164
1.431733,-8.27436,-1.73819
-1.7860740000000002,-7.996633,-3.3279400000000003
0.885855,-11.468226,5.544971
-0.770933,-21.74414,-3.605668
6.670246000000001,-13.206416,-4.611232
0.675165,-17.343597,-7.225700999999999
7.771578999999999,-8.580819,12.650962
3.873819,-6.162675,-6.210559
3.193865,-12.392388,2.5953150000000003
4.951209,-25.828648,-7.991845
7.484275,-14.887146,2.973599
4.797981,-19.560625,-9.227253
-0.933739,-9.188946,10.007763
4.347871,-7.354986999999999,-6.277597
5.061342,-13.785813,10.333375
2.499547,-4.788403,0.019154
5.923255,-18.195932,10.486604
2.5953150000000003,-7.762002000000001,-10.606314
-6.287173,-20.60929,-38.08696
1.4987700000000002,-14.719551999999998,-5.975927
3.677494,-6.8761470000000005,-2.782062
0.612916,-3.744531,-0.507571
0.052672,-8.403648,-4.185065
-1.843535,-3.892972,-1.929727
0.665588,-6.809108999999999,-1.939303
-2.011129,-4.232949,-0.919373
2.432509,-10.304645,-1.671153
0.588974,-5.999869,-2.327164
1.431733,-8.27436,-1.73819
-1.7860740000000002,-7.996633,-3.3279400000000003
0.885855,-11.468226,5.544971
-0.770933,-21.74414,-3.605668
6.670246000000001,-13.206416,-4.611232
0.675165,-17.343597,-7.225700999999999
7.771578999999999,-8.580819,12.650962
3.873819,-6.162675,-6.210559
3.193865,-12.392388,2.5953150000000003
4.951209,-25.828648,-7.991845
7.484275,-14.887146,2.973599
4.797981,-19.560625,-9.227253
-0.933739,-9.188946,10.007763
4.347871,-7.354986999999999,-6.277597
5.061342,-13.785813,10.333375
2.499547,-4.788403,0.019154
5.923255,-18.195932,10.486604
2.5953150000000003,-7.762002000000001,-10.606314
-6.287173,-20.60929,-38.08696
1.4987700000000002,-14.719551999999998,-5.975927
4.936844000000001,-19.177555,17.492037
5.00867,-9.591172,-1.522712
0.052672,-8.403648,-4.185065
-1.843535,-3.892972,-1.929727
0.665588,-6.809108999999999,-1.939303
-2.011129,-4.232949,-0.919373
2.432509,-10.304645,-1.671153
0.588974,-5.999869,-2.327164
1.431733,-8.27436,-1.73819
-1.7860740000000002,-7.996633,-3.3279400000000003
0.885855,-11.468226,5.544971
-0.770933,-21.74414,-3.605668
6.670246000000001,-13.206416,-4.611232
0.675165,-17.343597,-7.225700999999999
7.771578999999999,-8.580819,12.650962
3.873819,-6.162675,-6.210559
3.193865,-12.392388,2.5953150000000003
4.951209,-25.828648,-7.991845
7.484275,-14.887146,2.973599
4.797981,-19.560625,-9.227253
-0.933739,-9.188946,10.007763
4.347871,-7.354986999999999,-6.277597
5.061342,-13.785813,10.333375
2.499547,-4.788403,0.019154
5.923255,-18.195932,10.486604
2.5953150000000003,-7.762002000000001,-10.606314
-6.287173,-20.60929,-38.08696
1.4987700000000002,-14.719551999999998,-5.975927
4.936844000000001,-19.177555,17.492037
5.00867,-9.591172,-1.522712
0.21069,-4.065354,1.5370780000000002
-0.47884,-12.210428,-0.301669
0.665588,-6.809108999999999,-1.939303
-2.011129,-4.232949,-0.919373
2.432509,-10.304645,-1.671153
0.588974,-5.999869,-2.327164
1.431733,-8.27436,-1.73819
-1.7860740000000002,-7.996633,-3.3279400000000003
0.885855,-11.468226,5.544971
-0.770933,-21.74414,-3.605668
6.670246000000001,-13.206416,-4.611232
0.675165,-17.343597,-7.225700999999999
7.771578999999999,-8.580819,12.650962
3.873819,-6.162675,-6.210559
3.193865,-12.392388,2.5953150000000003
4.951209,-25.828648,-7.991845
7.484275,-14.887146,2.973599
4.797981,-19.560625,-9.227253
-0.933739,-9.188946,10.007763
4.347871,-7.354986999999999,-6.277597
5.061342,-13.785813,10.333375
2.499547,-4.788403,0.019154
5.923255,-18.195932,10.486604
2.5953150000000003,-7.762002000000001,-10.606314
-6.287173,-20.60929,-38.08696
1.4987700000000002,-14.719551999999998,-5.975927
4.936844000000001,-19.177555,17.492037
5.00867,-9.591172,-1.522712
0.21069,-4.065354,1.5370780000000002
-0.47884,-12.210428,-0.301669
-0.153229,-10.213664,-1.7525560000000002
0.6272810000000001,-7.627927000000001,-3.270479
2.432509,-10.304645,-1.671153
0.588974,-5.999869,-2.327164
1.431733,-8.27436,-1.73819
-1.7860740000000002,-7.996633,-3.3279400000000003
0.885855,-11.468226,5.544971
-0.770933,-21.74414,-3.605668
6.670246000000001,-13.206416,-4.611232
0.675165,-17.343597,-7.225700999999999
7.771578999999999,-8.580819,12.650962
3.873819,-6.162675,-6.210559
3.193865,-12.392388,2.5953150000000003
4.951209,-25.828648,-7.991845
7.484275,-14.887146,2.973599
4.797981,-19.560625,-9.227253
-0.933739,-9.188946,10.007763
4.347871,-7.354986999999999,-6.277597
5.061342,-13.785813,10.333375
2.499547,-4.788403,0.019154
5.923255,-18.195932,10.486604
2.5953150000000003,-7.762002000000001,-10.606314
-6.287173,-20.60929,-38.08696
1.4987700000000002,-14.719551999999998,-5.975927
4.936844000000001,-19.177555,17.492037
5.00867,-9.591172,-1.522712
0.21069,-4.065354,1.5370780000000002
-0.47884,-12.210428,-0.301669
-0.153229,-10.213664,-1.7525560000000002
0.6272810000000001,-7.627927000000001,-3.270479
1.177947,-5.415684,-2.059013
3.466804,-5.406107,-2.633622
1.431733,-8.27436,-1.73819
-1.7860740000000002,-7.996633,-3.3279400000000003
0.885855,-11.468226,5.544971
-0.770933,-21.74414,-3.605668
6.670246000000001,-13.206416,-4.611232
0.675165,-17.343597,-7.225700999999999
7.771578999999999,-8.580819,12.650962
3.873819,-6.162675,-6.210559
3.193865,-12.392388,2.5953150000000003
4.951209,-25.828648,-7.991845
7.484275,-14.887146,2.973599
4.797981,-19.560625,-9.227253
-0.933739,-9.188946,10.007763
4.347871,-7.354986999999999,-6.277597
5.061342,-13.785813,10.333375
2.499547,-4.788403,0.019154
5.923255,-18.195932,10.486604
2.5953150000000003,-7.762002000000001,-10.606314
-6.287173,-20.60929,-38.08696
1.4987700000000002,-14.719551999999998,-5.975927
4.936844000000001,-19.177555,17.492037
5.00867,-9.591172,-1.522712
0.21069,-4.065354,1.5370780000000002
-0.47884,-12.210428,-0.301669
-0.153229,-10.213664,-1.7525560000000002
0.6272810000000001,-7.627927000000001,-3.270479
1.177947,-5.415684,-2.059013
3.466804,-5.406107,-2.633622
0.057461,-6.445191,-3.069367
5.88016,-6.900089,-3.509899
0.885855,-11.468226,5.544971
-0.770933,-21.74414,-3.605668
6.670246000000001,-13.206416,-4.611232
0.675165,-17.343597,-7.225700999999999
7.771578999999999,-8.580819,12.650962
3.873819,-6.162675,-6.210559
3.193865,-12.392388,2.5953150000000003
4.951209,-25.828648,-7.991845
7.484275,-14.887146,2.973599
4.797981,-19.560625,-9.227253
-0.933739,-9.188946,10.007763
4.347871,-7.354986999999999,-6.277597
5.061342,-13.785813,10.333375
2.499547,-4.788403,0.019154
5.923255,-18.195932,10.486604
2.5953150000000003,-7.762002000000001,-10.606314
-6.287173,-20.60929,-38.08696
1.4987700000000002,-14.719551999999998,-5.975927
4.936844000000001,-19.177555,17.492037
5.00867,-9.591172,-1.522712
0.21069,-4.065354,1.5370780000000002
-0.47884,-12.210428,-0.301669
-0.153229,-10.213664,-1.7525560000000002
0.6272810000000001,-7.627927000000001,-3.270479
1.177947,-5.415684,-2.059013
3.466804,-5.406107,-2.633622
0.057461,-6.445191,-3.069367
5.88016,-6.900089,-3.509899
4.774039,-9.251195,-2.600103
0.766145,-4.089296,-0.833182
6.670246000000001,-13.206416,-4.611232
0.675165,-17.343597,-7.225700999999999
7.771578999999999,-8.580819,12.650962
3.873819,-6.162675,-6.210559
3.193865,-12.392388,2.5953150000000003
4.951209,-25.828648,-7.991845
7.484275,-14.887146,2.973599
4.797981,-19.560625,-9.227253
-0.933739,-9.188946,10.007763
4.347871,-7.354986999999999,-6.277597
5.061342,-13.785813,10.333375
2.499547,-4.788403,0.019154
5.923255,-18.195932,10.486604
2.5953150000000003,-7.762002000000001,-10.606314
-6.287173,-20.60929,-38.08696
1.4987700000000002,-14.719551999999998,-5.975927
4.936844000000001,-19.177555,17.492037
5.00867,-9.591172,-1.522712
0.21069,-4.065354,1.5370780000000002
-0.47884,-12.210428,-0.301669
-0.153229,-10.213664,-1.7525560000000002
0.6272810000000001,-7.627927000000001,-3.270479
1.177947,-5.415684,-2.059013
3.466804,-5.406107,-2.633622
0.057461,-6.445191,-3.069367
5.88016,-6.900089,-3.509899
4.774039,-9.251195,-2.600103
0.766145,-4.089296,-0.833182
5.865794,-9.840169,-1.23062
-1.446098,-4.903325,-0.512359
7.771578999999999,-8.580819,12.650962
3.873819,-6.162675,-6.210559
3.193865,-12.392388,2.5953150000000003
4.951209,-25.828648,-7.991845
7.484275,-14.887146,2.973599
4.797981,-19.560625,-9.227253
-0.933739,-9.188946,10.007763
4.347871,-7.354986999999999,-6.277597
5.061342,-13.785813,10.333375
2.499547,-4.788403,0.019154
5.923255,-18.195932,10.486604
2.5953150000000003,-7.762002000000001,-10.606314
-6.287173,-20.60929,-38.08696
1.4987700000000002,-14.719551999999998,-5.975927
4.936844000000001,-19.177555,17.492037
5.00867,-9.591172,-1.522712
0.21069,-4.065354,1.5370780000000002
-0.47884,-12.210428,-0.301669
-0.153229,-10.213664,-1.7525560000000002
0.6272810000000001,-7.627927000000001,-3.270479
1.177947,-5.415684,-2.059013
3.466804,-5.406107,-2.633622
0.057461,-6.445191,-3.069367
5.88016,-6.900089,-3.509899
4.774039,-9.251195,-2.600103
0.766145,-4.089296,-0.833182
5.865794,-9.840169,-1.23062
-1.446098,-4.903325,-0.512359
2.600103,-7.929596000000001,0.5841850000000001
-1.766921,-5.295974,0.766145
2.470816,-7.718906,2.949657
4.941633,-6.833050999999999,-1.6998830000000005
1.1683709999999998,-9.816227,1.910573
8.073248,-5.856217,-1.359906
3.366248,-16.82645,1.1683709999999998
7.015011,-16.845604,-7.517792999999999
4.697424,-9.074024,-0.866701
-1.5466540000000002,-1.508347,0.3304
3.830723,-12.014104,-1.158794
2.418144,-9.002198,0.8236049999999999
3.529053,-7.436389999999999,1.905785
0.986411,-17.3005,-0.3830719999999999
-4.582502,-7.862558,9.792285
1.910573,-5.985504,-1.599327
4.458004,-6.914453999999999,-5.401319
2.475605,-8.705316999999999,-0.3734949999999999
-1.120486,-5.803545,2.044648
-2.39899,-8.451532,4.055778
5.64074,-8.566454,1.029507
-0.8283940000000001,-0.483629,10.582372
4.491523,-7.393294999999999,-1.58975
4.97994,-10.127473,-14.422671
1.106121,-7.115567,2.240973
1.355118,-8.667010000000001,1.479617
2.149993,-7.474697,5.93762
8.288725999999999,-10.783484,-3.165135
-0.991199,-19.416977,4.074930999999999
7.062895,-8.063671000000001,-0.972046
0.766145,-4.788403,-0.981623
0.02873,-6.545747,-0.6464340000000001
3.193865,-12.392388,2.5953150000000003
4.951209,-25.828648,-7.991845
7.484275,-14.887146,2.973599
4.797981,-19.560625,-9.227253
-0.933739,-9.188946,10.007763
4.347871,-7.354986999999999,-6.277597
5.061342,-13.785813,10.333375
2.499547,-4.788403,0.019154
5.923255,-18.195932,10.486604
2.5953150000000003,-7.762002000000001,-10.606314
-6.287173,-20.60929,-38.08696
1.4987700000000002,-14.719551999999998,-5.975927
4.936844000000001,-19.177555,17.492037
5.00867,-9.591172,-1.522712
0.21069,-4.065354,1.5370780000000002
-0.47884,-12.210428,-0.301669
-0.153229,-10.213664,-1.7525560000000002
0.6272810000000001,-7.627927000000001,-3.270479
1.177947,-5.415684,-2.059013
3.466804,-5.406107,-2.633622
0.057461,-6.445191,-3.069367
5.88016,-6.900089,-3.509899
4.774039,-9.251195,-2.600103
0.766145,-4.089296,-0.833182
5.865794,-9.840169,-1.23062
-1.446098,-4.903325,-0.512359
2.600103,-7.929596000000001,0.5841850000000001
-1.766921,-5.295974,0.766145
0.430956,-7.699753,-0.579397
0.8475469999999999,-9.337387,-3.797204
7.484275,-14.887146,2.973599
4.797981,-19.560625,-9.227253
-0.933739,-9.188946,10.007763
4.347871,-7.354986999999999,-6.277597
5.061342,-13.785813,10.333375
2.499547,-4.788403,0.019154
5.923255,-18.195932,10.486604
2.5953150000000003,-7.762002000000001,-10.606314
-6.287173,-20.60929,-38.08696
1.4987700000000002,-14.719551999999998,-5.975927
4.936844000000001,-19.177555,17.492037
5.00867,-9.591172,-1.522712
0.21069,-4.065354,1.5370780000000002
-0.47884,-12.210428,-0.301669
-0.153229,-10.213664,-1.7525560000000002
0.6272810000000001,-7.627927000000001,-3.270479
1.177947,-5.415684,-2.059013
3.466804,-5.406107,-2.633622
0.057461,-6.445191,-3.069367
5.88016,-6.900089,-3.509899
4.774039,-9.251195,-2.600103
0.766145,-4.089296,-0.833182
5.865794,-9.840169,-1.23062
-1.446098,-4.903325,-0.512359
2.600103,-7.929596000000001,0.5841850000000001
-1.766921,-5.295974,0.766145
0.430956,-7.699753,-0.579397
0.8475469999999999,-9.337387,-3.797204
-1.8579,-7.623138000000001,9.021352
0.272939,-11.860875,-2.920926
-0.933739,-9.188946,10.007763
4.347871,-7.354986999999999,-6.277597
5.061342,-13.785813,10.333375
2.499547,-4.788403,0.019154
5.923255,-18.195932,10.486604
2.5953150000000003,-7.762002000000001,-10.606314
-6.287173,-20.60929,-38.08696
1.4987700000000002,-14.719551999999998,-5.975927
4.936844000000001,-19.177555,17.492037
5.00867,-9.591172,-1.522712
0.21069,-4.065354,1.5370780000000002
-0.47884,-12.210428,-0.301669
-0.153229,-10.213664,-1.7525560000000002
0.6272810000000001,-7.627927000000001,-3.270479
1.177947,-5.415684,-2.059013
3.466804,-5.406107,-2.633622
0.057461,-6.445191,-3.069367
5.88016,-6.900089,-3.509899
4.774039,-9.251195,-2.600103
0.766145,-4.089296,-0.833182
5.865794,-9.840169,-1.23062
-1.446098,-4.903325,-0.512359
2.600103,-7.929596000000001,0.5841850000000001
-1.766921,-5.295974,0.766145
0.430956,-7.699753,-0.579397
0.8475469999999999,-9.337387,-3.797204
-1.8579,-7.623138000000001,9.021352
0.272939,-11.860875,-2.920926
2.499547,-7.843405000000001,-3.620033
-4.76925,-9.648633,-12.382812
5.061342,-13.785813,10.333375
2.499547,-4.788403,0.019154
5.923255,-18.195932,10.486604
2.5953150000000003,-7.762002000000001,-10.606314
-6.287173,-20.60929,-38.08696
1.4987700000000002,-14.719551999999998,-5.975927
4.936844000000001,-19.177555,17.492037
5.00867,-9.591172,-1.522712
0.21069,-4.065354,1.5370780000000002
-0.47884,-12.210428,-0.301669
-0.153229,-10.213664,-1.7525560000000002
0.6272810000000001,-7.627927000000001,-3.270479
1.177947,-5.415684,-2.059013
3.466804,-5.406107,-2.633622
0.057461,-6.445191,-3.069367
5.88016,-6.900089,-3.509899
4.774039,-9.251195,-2.600103
0.766145,-4.089296,-0.833182
5.865794,-9.840169,-1.23062
-1.446098,-4.903325,-0.512359
2.600103,-7.929596000000001,0.5841850000000001
-1.766921,-5.295974,0.766145
0.430956,-7.699753,-0.579397
0.8475469999999999,-9.337387,-3.797204
-1.8579,-7.623138000000001,9.021352
0.272939,-11.860875,-2.920926
2.499547,-7.843405000000001,-3.620033
-4.76925,-9.648633,-12.382812
2.475605,-9.993398,-6.62715
2.748544,-6.9096660000000005,-3.39019
5.923255,-18.195932,10.486604
2.5953150000000003,-7.762002000000001,-10.606314
-6.287173,-20.60929,-38.08696
1.4987700000000002,-14.719551999999998,-5.975927
4.936844000000001,-19.177555,17.492037
5.00867,-9.591172,-1.522712
0.21069,-4.065354,1.5370780000000002
-0.47884,-12.210428,-0.301669
-0.153229,-10.213664,-1.7525560000000002
0.6272810000000001,-7.627927000000001,-3.270479
1.177947,-5.415684,-2.059013
3.466804,-5.406107,-2.633622
0.057461,-6.445191,-3.069367
5.88016,-6.900089,-3.509899
4.774039,-9.251195,-2.600103
0.766145,-4.089296,-0.833182
5.865794,-9.840169,-1.23062
-1.446098,-4.903325,-0.512359
2.600103,-7.929596000000001,0.5841850000000001
-1.766921,-5.295974,0.766145
0.430956,-7.699753,-0.579397
0.8475469999999999,-9.337387,-3.797204
-1.8579,-7.623138000000001,9.021352
0.272939,-11.860875,-2.920926
2.499547,-7.843405000000001,-3.620033
-4.76925,-9.648633,-12.382812
2.475605,-9.993398,-6.62715
2.748544,-6.9096660000000005,-3.39019
1.264139,-7.517792999999999,0.493206
-1.086968,-5.717354,2.499547
-6.287173,-20.60929,-38.08696
1.4987700000000002,-14.719551999999998,-5.975927
4.936844000000001,-19.177555,17.492037
5.00867,-9.591172,-1.522712
0.21069,-4.065354,1.5370780000000002
-0.47884,-12.210428,-0.301669
-0.153229,-10.213664,-1.7525560000000002
0.6272810000000001,-7.627927000000001,-3.270479
1.177947,-5.415684,-2.059013
3.466804,-5.406107,-2.633622
0.057461,-6.445191,-3.069367
5.88016,-6.900089,-3.509899
4.774039,-9.251195,-2.600103
0.766145,-4.089296,-0.833182
5.865794,-9.840169,-1.23062
-1.446098,-4.903325,-0.512359
2.600103,-7.929596000000001,0.5841850000000001
-1.766921,-5.295974,0.766145
0.430956,-7.699753,-0.579397
0.8475469999999999,-9.337387,-3.797204
-1.8579,-7.623138000000001,9.021352
0.272939,-11.860875,-2.920926
2.499547,-7.843405000000001,-3.620033
-4.76925,-9.648633,-12.382812
2.475605,-9.993398,-6.62715
2.748544,-6.9096660000000005,-3.39019
1.264139,-7.517792999999999,0.493206
-1.086968,-5.717354,2.499547
-2.614468,-8.508992999999998,-0.071826
-1.522712,-16.82645,-2.791639
4.936844000000001,-19.177555,17.492037
5.00867,-9.591172,-1.522712
0.21069,-4.065354,1.5370780000000002
-0.47884,-12.210428,-0.301669
-0.153229,-10.213664,-1.7525560000000002
0.6272810000000001,-7.627927000000001,-3.270479
1.177947,-5.415684,-2.059013
3.466804,-5.406107,-2.633622
0.057461,-6.445191,-3.069367
5.88016,-6.900089,-3.509899
4.774039,-9.251195,-2.600103
0.766145,-4.089296,-0.833182
5.865794,-9.840169,-1.23062
-1.446098,-4.903325,-0.512359
2.600103,-7.929596000000001,0.5841850000000001
-1.766921,-5.295974,0.766145
0.430956,-7.699753,-0.579397
0.8475469999999999,-9.337387,-3.797204
-1.8579,-7.623138000000001,9.021352
0.272939,-11.860875,-2.920926
2.499547,-7.843405000000001,-3.620033
-4.76925,-9.648633,-12.382812
2.475605,-9.993398,-6.62715
2.748544,-6.9096660000000005,-3.39019
1.264139,-7.517792999999999,0.493206
-1.086968,-5.717354,2.499547
-2.614468,-8.508992999999998,-0.071826
-1.522712,-16.82645,-2.791639
4.31914,-13.091495,-0.411803
0.430956,-15.255854,-5.688623000000001
0.21069,-4.065354,1.5370780000000002
-0.47884,-12.210428,-0.301669
-0.153229,-10.213664,-1.7525560000000002
0.6272810000000001,-7.627927000000001,-3.270479
1.177947,-5.415684,-2.059013
3.466804,-5.406107,-2.633622
0.057461,-6.445191,-3.069367
5.88016,-6.900089,-3.509899
4.774039,-9.251195,-2.600103
0.766145,-4.089296,-0.833182
5.865794,-9.840169,-1.23062
-1.446098,-4.903325,-0.512359
2.600103,-7.929596000000001,0.5841850000000001
-1.766921,-5.295974,0.766145
0.430956,-7.699753,-0.579397
0.8475469999999999,-9.337387,-3.797204
-1.8579,-7.623138000000001,9.021352
0.272939,-11.860875,-2.920926
2.499547,-7.843405000000001,-3.620033
-4.76925,-9.648633,-12.382812
2.475605,-9.993398,-6.62715
2.748544,-6.9096660000000005,-3.39019
1.264139,-7.517792999999999,0.493206
-1.086968,-5.717354,2.499547
-2.614468,-8.508992999999998,-0.071826
-1.522712,-16.82645,-2.791639
4.31914,-13.091495,-0.411803
0.430956,-15.255854,-5.688623000000001
5.061342,-14.508862,-22.663513
2.82037,-9.710882000000002,-3.806781
-0.153229,-10.213664,-1.7525560000000002
0.6272810000000001,-7.627927000000001,-3.270479
1.177947,-5.415684,-2.059013
3.466804,-5.406107,-2.633622
0.057461,-6.445191,-3.069367
5.88016,-6.900089,-3.509899
4.774039,-9.251195,-2.600103
0.766145,-4.089296,-0.833182
5.865794,-9.840169,-1.23062
-1.446098,-4.903325,-0.512359
2.600103,-7.929596000000001,0.5841850000000001
-1.766921,-5.295974,0.766145
0.430956,-7.699753,-0.579397
0.8475469999999999,-9.337387,-3.797204
-1.8579,-7.623138000000001,9.021352
0.272939,-11.860875,-2.920926
2.499547,-7.843405000000001,-3.620033
-4.76925,-9.648633,-12.382812
2.475605,-9.993398,-6.62715
2.748544,-6.9096660000000005,-3.39019
1.264139,-7.517792999999999,0.493206
-1.086968,-5.717354,2.499547
-2.614468,-8.508992999999998,-0.071826
-1.522712,-16.82645,-2.791639
4.31914,-13.091495,-0.411803
0.430956,-15.255854,-5.688623000000001
5.061342,-14.508862,-22.663513
2.82037,-9.710882000000002,-3.806781
2.753332,-11.559206,-10.630256
0.9912,-8.935161,-0.1723829999999999
1.177947,-5.415684,-2.059013
3.466804,-5.406107,-2.633622
0.057461,-6.445191,-3.069367
5.88016,-6.900089,-3.509899
4.774039,-9.251195,-2.600103
0.766145,-4.089296,-0.833182
5.865794,-9.840169,-1.23062
-1.446098,-4.903325,-0.512359
