accelerometer_X,accelerometer_Y,accelerometer_Z
-4.151545,1.781286,2.173935
2.020706,3.706224,9.921572
1.762132,4.242526,8.078037
-0.445322,11.080365,6.756438
5.573702,13.43626,15.05474
1.781286,3.854665,7.685388
-4.941632,3.677494,4.376601
6.416461,-3.1795,-2.197877
18.780119,19.091364,25.775976
4.007894,13.273454999999998,5.683835
0.004788,-8.925583999999999,-4.19943
9.552865,6.196194,15.389929
2.853889,8.197747,11.425131
3.394978,-9.375694,-2.892196
7.1969710000000005,9.878476,0.7182609999999999
18.904617,15.370775,16.184803
2.978387,-0.948104,2.221819
0.430956,8.872911,2.475605
13.924677,6.224925,0.8906430000000001
1.58975,-6.933608,-4.003105000000001
1.733402,7.268797,2.662352
22.141577,17.166426,7.1969710000000005
2.75812,-0.138864,4.644751
-2.566584,4.582502,11.377247
22.720974,5.401319,2.413355
21.86385,12.014104,8.130709
-3.2321720000000003,7.479486,2.116475
-1.819593,-16.778566,-3.552995
4.161122,18.50239,9.562442
-0.2585739999999999,9.414001,3.96001
13.924677,6.224925,0.8906430000000001
1.58975,-6.933608,-4.003105000000001
1.733402,7.268797,2.662352
22.141577,17.166426,7.1969710000000005
2.75812,-0.138864,4.644751
-2.566584,4.582502,11.377247
22.720974,5.401319,2.413355
21.86385,12.014104,8.130709
-3.2321720000000003,7.479486,2.116475
-1.819593,-16.778566,-3.552995
4.161122,18.50239,9.562442
-0.2585739999999999,9.414001,3.96001
12.483368,13.421895,3.318364
10.405201,8.322245,1.3982139999999998
-7.220911999999999,8.010999,0.052672
25.914839,0.799663,8.872911
23.860615,14.264654,6.952762
0.622492,10.635044,-6.234501
-10.994174,-20.269312,-2.145205
5.78918,12.411542,4.616021
-3.126827,5.659893,2.384625
17.262194,-0.6991069999999999,-3.586514
22.031445,18.406622,1.5370780000000002
3.60088,12.368446,2.217031
-0.354342,-13.206416,-7.254430999999999
8.245631,21.691467000000003,7.599196000000001
18.641254,21.638796,5.31034
4.381389,-6.0764830000000005,-3.620033
26.499025,26.015396,11.324574
4.003105000000001,13.723564,-0.924162
23.654713,24.128765,-2.346318
-1.843535,10.381259,-1.388637
0.612916,-10.400413,0.0957679999999999
6.421249,29.022512,8.8777
5.214572,20.910957,8.30788
0.565032,-9.792285,-0.325611
-2.738967,4.458004,8.255207
-2.585738,7.244855,0.521936
-2.140416,-19.938911,-2.284068
30.119057,23.142353,-16.376339
-4.165911,7.268797,2.226608
-1.522712,-15.916653,1.92015
12.909535,28.543673,0.354342
-0.11971,16.591818,-0.071826
4.644751,-16.098612,-2.715025
5.736508000000001,13.55597,7.354988
-8.006210000000001,5.315128,2.284068
7.886500999999999,-12.397177,1.120486
30.674513,24.890121,-4.079719
1.187524,13.072341,-1.953669
1.44131,-14.585477,3.610456
6.0286,17.889475,-0.732626
15.35641,25.665842,-2.499546
0.550666,-3.926491,0.895431
-3.246537,8.75799,-3.605668
-1.345541,5.391742,-1.359906
17.860744,-3.758896,-3.394978
18.689138,22.256498,-1.335964
-0.143652,8.240842,-0.7038949999999999
0.80924,-20.618866,-1.489193
11.683704,5.822699,0.311246
3.816358,13.713987,7.771578999999999
9.840169,4.644751,-12.378023
11.894394,-12.871228,-0.6272810000000001
14.073117000000002,12.229582,22.237345
19.009962,32.671276,10.936713
-0.387861,-2.710236,-6.971914999999999
-0.871489,8.427589999999999,3.983952
3.318364,12.124237,-6.368576
4.012682,4.927267,18.579004
-5.683835,5.559336,0.067038
10.596737,25.924416,4.884172
6.335058,-7.580042,4.477157
-4.548983,7.465121000000001,2.619257
22.261288,11.429919,6.133945
5.688624,12.215217,10.749966
-6.976703,5.31034,-2.011129
7.891288999999999,-14.877569,5.482722
9.993398,16.050728,-0.2585739999999999
-4.165911,6.770803,-4.908113
-1.723825,-5.334281,-2.954445
18.722658,31.924286,5.631162000000001
-8.5473,6.50744,-0.579397
8.384495,-11.999739,-2.777274
3.155558,10.989386,0.794875
3.825935,-0.0239419999999999,35.98964
2.839523,3.65834,11.942278
-4.544194,6.612785000000001,1.2545620000000002
2.786851,18.918982,5.415684
3.20823,-6.708553,-1.608903
9.840169,4.644751,-12.378023
11.894394,-12.871228,-0.6272810000000001
14.073117000000002,12.229582,22.237345
19.009962,32.671276,10.936713
-0.387861,-2.710236,-6.971914999999999
-0.871489,8.427589999999999,3.983952
3.318364,12.124237,-6.368576
4.012682,4.927267,18.579004
-5.683835,5.559336,0.067038
10.596737,25.924416,4.884172
6.335058,-7.580042,4.477157
-4.548983,7.465121000000001,2.619257
22.261288,11.429919,6.133945
5.688624,12.215217,10.749966
-6.976703,5.31034,-2.011129
7.891288999999999,-14.877569,5.482722
9.993398,16.050728,-0.2585739999999999
-4.165911,6.770803,-4.908113
-1.723825,-5.334281,-2.954445
18.722658,31.924286,5.631162000000001
-8.5473,6.50744,-0.579397
8.384495,-11.999739,-2.777274
3.155558,10.989386,0.794875
3.825935,-0.0239419999999999,35.98964
2.839523,3.65834,11.942278
-4.544194,6.612785000000001,1.2545620000000002
2.786851,18.918982,5.415684
3.20823,-6.708553,-1.608903
-4.419696,4.750097,4.209007
28.629864,26.125528,1.331176
14.073117000000002,12.229582,22.237345
19.009962,32.671276,10.936713
-0.387861,-2.710236,-6.971914999999999
-0.871489,8.427589999999999,3.983952
3.318364,12.124237,-6.368576
4.012682,4.927267,18.579004
-5.683835,5.559336,0.067038
10.596737,25.924416,4.884172
6.335058,-7.580042,4.477157
-4.548983,7.465121000000001,2.619257
22.261288,11.429919,6.133945
5.688624,12.215217,10.749966
-6.976703,5.31034,-2.011129
7.891288999999999,-14.877569,5.482722
9.993398,16.050728,-0.2585739999999999
-4.165911,6.770803,-4.908113
-1.723825,-5.334281,-2.954445
18.722658,31.924286,5.631162000000001
-8.5473,6.50744,-0.579397
8.384495,-11.999739,-2.777274
3.155558,10.989386,0.794875
3.825935,-0.0239419999999999,35.98964
2.839523,3.65834,11.942278
-4.544194,6.612785000000001,1.2545620000000002
2.786851,18.918982,5.415684
3.20823,-6.708553,-1.608903
-4.419696,4.750097,4.209007
28.629864,26.125528,1.331176
3.284845,-0.162806,-4.486733999999999
-2.748543,5.683835,-1.16837
-0.387861,-2.710236,-6.971914999999999
-0.871489,8.427589999999999,3.983952
3.318364,12.124237,-6.368576
4.012682,4.927267,18.579004
-5.683835,5.559336,0.067038
10.596737,25.924416,4.884172
6.335058,-7.580042,4.477157
-4.548983,7.465121000000001,2.619257
22.261288,11.429919,6.133945
5.688624,12.215217,10.749966
-6.976703,5.31034,-2.011129
7.891288999999999,-14.877569,5.482722
9.993398,16.050728,-0.2585739999999999
-4.165911,6.770803,-4.908113
-1.723825,-5.334281,-2.954445
18.722658,31.924286,5.631162000000001
-8.5473,6.50744,-0.579397
8.384495,-11.999739,-2.777274
3.155558,10.989386,0.794875
3.825935,-0.0239419999999999,35.98964
2.839523,3.65834,11.942278
-4.544194,6.612785000000001,1.2545620000000002
2.786851,18.918982,5.415684
3.20823,-6.708553,-1.608903
-4.419696,4.750097,4.209007
28.629864,26.125528,1.331176
3.284845,-0.162806,-4.486733999999999
-2.748543,5.683835,-1.16837
0.617704,-8.178592,-4.668693
16.864758,27.710491,7.958327000000001
3.318364,12.124237,-6.368576
4.012682,4.927267,18.579004
-5.683835,5.559336,0.067038
10.596737,25.924416,4.884172
6.335058,-7.580042,4.477157
-4.548983,7.465121000000001,2.619257
22.261288,11.429919,6.133945
5.688624,12.215217,10.749966
-6.976703,5.31034,-2.011129
7.891288999999999,-14.877569,5.482722
9.993398,16.050728,-0.2585739999999999
-4.165911,6.770803,-4.908113
-1.723825,-5.334281,-2.954445
18.722658,31.924286,5.631162000000001
-8.5473,6.50744,-0.579397
8.384495,-11.999739,-2.777274
3.155558,10.989386,0.794875
3.825935,-0.0239419999999999,35.98964
2.839523,3.65834,11.942278
-4.544194,6.612785000000001,1.2545620000000002
2.786851,18.918982,5.415684
3.20823,-6.708553,-1.608903
-4.419696,4.750097,4.209007
28.629864,26.125528,1.331176
3.284845,-0.162806,-4.486733999999999
-2.748543,5.683835,-1.16837
0.617704,-8.178592,-4.668693
16.864758,27.710491,7.958327000000001
2.920926,14.465767,3.040636
8.916007,14.834473999999998,-18.957289000000003
-5.683835,5.559336,0.067038
10.596737,25.924416,4.884172
6.335058,-7.580042,4.477157
-4.548983,7.465121000000001,2.619257
22.261288,11.429919,6.133945
5.688624,12.215217,10.749966
-6.976703,5.31034,-2.011129
7.891288999999999,-14.877569,5.482722
9.993398,16.050728,-0.2585739999999999
-4.165911,6.770803,-4.908113
-1.723825,-5.334281,-2.954445
18.722658,31.924286,5.631162000000001
-8.5473,6.50744,-0.579397
8.384495,-11.999739,-2.777274
3.155558,10.989386,0.794875
3.825935,-0.0239419999999999,35.98964
2.839523,3.65834,11.942278
-4.544194,6.612785000000001,1.2545620000000002
2.786851,18.918982,5.415684
3.20823,-6.708553,-1.608903
-4.419696,4.750097,4.209007
28.629864,26.125528,1.331176
3.284845,-0.162806,-4.486733999999999
-2.748543,5.683835,-1.16837
0.617704,-8.178592,-4.668693
16.864758,27.710491,7.958327000000001
2.920926,14.465767,3.040636
8.916007,14.834473999999998,-18.957289000000003
23.530214,11.463438,-3.648763
2.542642,11.190498,2.853889
6.335058,-7.580042,4.477157
-4.548983,7.465121000000001,2.619257
22.261288,11.429919,6.133945
5.688624,12.215217,10.749966
-6.976703,5.31034,-2.011129
7.891288999999999,-14.877569,5.482722
9.993398,16.050728,-0.2585739999999999
-4.165911,6.770803,-4.908113
-1.723825,-5.334281,-2.954445
18.722658,31.924286,5.631162000000001
-8.5473,6.50744,-0.579397
8.384495,-11.999739,-2.777274
3.155558,10.989386,0.794875
3.825935,-0.0239419999999999,35.98964
2.839523,3.65834,11.942278
-4.544194,6.612785000000001,1.2545620000000002
2.786851,18.918982,5.415684
3.20823,-6.708553,-1.608903
-4.419696,4.750097,4.209007
28.629864,26.125528,1.331176
3.284845,-0.162806,-4.486733999999999
-2.748543,5.683835,-1.16837
0.617704,-8.178592,-4.668693
16.864758,27.710491,7.958327000000001
2.920926,14.465767,3.040636
8.916007,14.834473999999998,-18.957289000000003
23.530214,11.463438,-3.648763
2.542642,11.190498,2.853889
4.505888,-11.693281,-3.294421
20.867863,26.187778,10.357317
22.261288,11.429919,6.133945
5.688624,12.215217,10.749966
-6.976703,5.31034,-2.011129
7.891288999999999,-14.877569,5.482722
9.993398,16.050728,-0.2585739999999999
-4.165911,6.770803,-4.908113
-1.723825,-5.334281,-2.954445
18.722658,31.924286,5.631162000000001
-8.5473,6.50744,-0.579397
8.384495,-11.999739,-2.777274
3.155558,10.989386,0.794875
3.825935,-0.0239419999999999,35.98964
2.839523,3.65834,11.942278
-4.544194,6.612785000000001,1.2545620000000002
2.786851,18.918982,5.415684
3.20823,-6.708553,-1.608903
-4.419696,4.750097,4.209007
28.629864,26.125528,1.331176
3.284845,-0.162806,-4.486733999999999
-2.748543,5.683835,-1.16837
0.617704,-8.178592,-4.668693
16.864758,27.710491,7.958327000000001
2.920926,14.465767,3.040636
8.916007,14.834473999999998,-18.957289000000003
23.530214,11.463438,-3.648763
2.542642,11.190498,2.853889
4.505888,-11.693281,-3.294421
20.867863,26.187778,10.357317
-2.020706,14.121001,1.177947
7.1395100000000005,-11.372458,-5.401319
-6.976703,5.31034,-2.011129
7.891288999999999,-14.877569,5.482722
9.993398,16.050728,-0.2585739999999999
-4.165911,6.770803,-4.908113
-1.723825,-5.334281,-2.954445
18.722658,31.924286,5.631162000000001
-8.5473,6.50744,-0.579397
8.384495,-11.999739,-2.777274
3.155558,10.989386,0.794875
3.825935,-0.0239419999999999,35.98964
2.839523,3.65834,11.942278
-4.544194,6.612785000000001,1.2545620000000002
2.786851,18.918982,5.415684
3.20823,-6.708553,-1.608903
-4.419696,4.750097,4.209007
28.629864,26.125528,1.331176
3.284845,-0.162806,-4.486733999999999
-2.748543,5.683835,-1.16837
0.617704,-8.178592,-4.668693
16.864758,27.710491,7.958327000000001
2.920926,14.465767,3.040636
8.916007,14.834473999999998,-18.957289000000003
23.530214,11.463438,-3.648763
2.542642,11.190498,2.853889
4.505888,-11.693281,-3.294421
20.867863,26.187778,10.357317
-2.020706,14.121001,1.177947
7.1395100000000005,-11.372458,-5.401319
-0.3734949999999999,8.236054,1.910573
-6.847417,5.377377,-7.091625
9.993398,16.050728,-0.2585739999999999
-4.165911,6.770803,-4.908113
-1.723825,-5.334281,-2.954445
18.722658,31.924286,5.631162000000001
-8.5473,6.50744,-0.579397
8.384495,-11.999739,-2.777274
3.155558,10.989386,0.794875
3.825935,-0.0239419999999999,35.98964
2.839523,3.65834,11.942278
-4.544194,6.612785000000001,1.2545620000000002
2.786851,18.918982,5.415684
3.20823,-6.708553,-1.608903
-4.419696,4.750097,4.209007
28.629864,26.125528,1.331176
3.284845,-0.162806,-4.486733999999999
-2.748543,5.683835,-1.16837
0.617704,-8.178592,-4.668693
16.864758,27.710491,7.958327000000001
2.920926,14.465767,3.040636
8.916007,14.834473999999998,-18.957289000000003
23.530214,11.463438,-3.648763
2.542642,11.190498,2.853889
4.505888,-11.693281,-3.294421
20.867863,26.187778,10.357317
-2.020706,14.121001,1.177947
7.1395100000000005,-11.372458,-5.401319
-0.3734949999999999,8.236054,1.910573
-6.847417,5.377377,-7.091625
6.737284,-10.098742,-1.6998830000000005
22.596476000000003,29.745562,2.001553
0.612916,-10.400413,0.0957679999999999
6.421249,29.022512,8.8777
5.214572,20.910957,8.30788
0.565032,-9.792285,-0.325611
-2.738967,4.458004,8.255207
-2.585738,7.244855,0.521936
-2.140416,-19.938911,-2.284068
30.119057,23.142353,-16.376339
-4.165911,7.268797,2.226608
-1.522712,-15.916653,1.92015
12.909535,28.543673,0.354342
-0.11971,16.591818,-0.071826
4.644751,-16.098612,-2.715025
5.736508000000001,13.55597,7.354988
-8.006210000000001,5.315128,2.284068
7.886500999999999,-12.397177,1.120486
30.674513,24.890121,-4.079719
1.187524,13.072341,-1.953669
1.44131,-14.585477,3.610456
6.0286,17.889475,-0.732626
15.35641,25.665842,-2.499546
0.550666,-3.926491,0.895431
-3.246537,8.75799,-3.605668
-1.345541,5.391742,-1.359906
17.860744,-3.758896,-3.394978
18.689138,22.256498,-1.335964
-0.143652,8.240842,-0.7038949999999999
0.80924,-20.618866,-1.489193
15.629349,29.8126,2.30801
15.528792,30.004135,10.548853
-1.723825,-5.334281,-2.954445
18.722658,31.924286,5.631162000000001
-8.5473,6.50744,-0.579397
8.384495,-11.999739,-2.777274
3.155558,10.989386,0.794875
3.825935,-0.0239419999999999,35.98964
2.839523,3.65834,11.942278
-4.544194,6.612785000000001,1.2545620000000002
2.786851,18.918982,5.415684
3.20823,-6.708553,-1.608903
-4.419696,4.750097,4.209007
28.629864,26.125528,1.331176
3.284845,-0.162806,-4.486733999999999
-2.748543,5.683835,-1.16837
0.617704,-8.178592,-4.668693
16.864758,27.710491,7.958327000000001
2.920926,14.465767,3.040636
8.916007,14.834473999999998,-18.957289000000003
23.530214,11.463438,-3.648763
2.542642,11.190498,2.853889
4.505888,-11.693281,-3.294421
20.867863,26.187778,10.357317
-2.020706,14.121001,1.177947
7.1395100000000005,-11.372458,-5.401319
-0.3734949999999999,8.236054,1.910573
-6.847417,5.377377,-7.091625
6.737284,-10.098742,-1.6998830000000005
22.596476000000003,29.745562,2.001553
-2.695871,11.511322,-1.446098
7.28795,-10.630256,-5.023035
-8.5473,6.50744,-0.579397
8.384495,-11.999739,-2.777274
3.155558,10.989386,0.794875
3.825935,-0.0239419999999999,35.98964
2.839523,3.65834,11.942278
-4.544194,6.612785000000001,1.2545620000000002
2.786851,18.918982,5.415684
3.20823,-6.708553,-1.608903
-4.419696,4.750097,4.209007
28.629864,26.125528,1.331176
3.284845,-0.162806,-4.486733999999999
-2.748543,5.683835,-1.16837
0.617704,-8.178592,-4.668693
16.864758,27.710491,7.958327000000001
2.920926,14.465767,3.040636
8.916007,14.834473999999998,-18.957289000000003
23.530214,11.463438,-3.648763
2.542642,11.190498,2.853889
4.505888,-11.693281,-3.294421
20.867863,26.187778,10.357317
-2.020706,14.121001,1.177947
7.1395100000000005,-11.372458,-5.401319
-0.3734949999999999,8.236054,1.910573
-6.847417,5.377377,-7.091625
6.737284,-10.098742,-1.6998830000000005
22.596476000000003,29.745562,2.001553
-2.695871,11.511322,-1.446098
7.28795,-10.630256,-5.023035
4.750097,12.852075,3.394978
19.780895,28.830976,-8.379706
3.155558,10.989386,0.794875
3.825935,-0.0239419999999999,35.98964
2.839523,3.65834,11.942278
-4.544194,6.612785000000001,1.2545620000000002
2.786851,18.918982,5.415684
3.20823,-6.708553,-1.608903
-4.419696,4.750097,4.209007
28.629864,26.125528,1.331176
3.284845,-0.162806,-4.486733999999999
-2.748543,5.683835,-1.16837
0.617704,-8.178592,-4.668693
16.864758,27.710491,7.958327000000001
2.920926,14.465767,3.040636
8.916007,14.834473999999998,-18.957289000000003
23.530214,11.463438,-3.648763
2.542642,11.190498,2.853889
4.505888,-11.693281,-3.294421
20.867863,26.187778,10.357317
-2.020706,14.121001,1.177947
7.1395100000000005,-11.372458,-5.401319
-0.3734949999999999,8.236054,1.910573
-6.847417,5.377377,-7.091625
6.737284,-10.098742,-1.6998830000000005
22.596476000000003,29.745562,2.001553
-2.695871,11.511322,-1.446098
7.28795,-10.630256,-5.023035
4.750097,12.852075,3.394978
19.780895,28.830976,-8.379706
2.312799,1.7573439999999998,1.637634
-4.505887,7.149087,1.575385
2.839523,3.65834,11.942278
-4.544194,6.612785000000001,1.2545620000000002
2.786851,18.918982,5.415684
3.20823,-6.708553,-1.608903
-4.419696,4.750097,4.209007
28.629864,26.125528,1.331176
3.284845,-0.162806,-4.486733999999999
-2.748543,5.683835,-1.16837
0.617704,-8.178592,-4.668693
16.864758,27.710491,7.958327000000001
2.920926,14.465767,3.040636
8.916007,14.834473999999998,-18.957289000000003
23.530214,11.463438,-3.648763
2.542642,11.190498,2.853889
4.505888,-11.693281,-3.294421
20.867863,26.187778,10.357317
-2.020706,14.121001,1.177947
7.1395100000000005,-11.372458,-5.401319
-0.3734949999999999,8.236054,1.910573
-6.847417,5.377377,-7.091625
6.737284,-10.098742,-1.6998830000000005
22.596476000000003,29.745562,2.001553
-2.695871,11.511322,-1.446098
7.28795,-10.630256,-5.023035
4.750097,12.852075,3.394978
19.780895,28.830976,-8.379706
2.312799,1.7573439999999998,1.637634
-4.505887,7.149087,1.575385
0.6943189999999999,16.567875,-4.884171
6.306328,-6.253655,-4.290409
2.786851,18.918982,5.415684
3.20823,-6.708553,-1.608903
-4.419696,4.750097,4.209007
28.629864,26.125528,1.331176
3.284845,-0.162806,-4.486733999999999
-2.748543,5.683835,-1.16837
0.617704,-8.178592,-4.668693
16.864758,27.710491,7.958327000000001
2.920926,14.465767,3.040636
8.916007,14.834473999999998,-18.957289000000003
23.530214,11.463438,-3.648763
2.542642,11.190498,2.853889
4.505888,-11.693281,-3.294421
20.867863,26.187778,10.357317
-2.020706,14.121001,1.177947
7.1395100000000005,-11.372458,-5.401319
-0.3734949999999999,8.236054,1.910573
-6.847417,5.377377,-7.091625
6.737284,-10.098742,-1.6998830000000005
22.596476000000003,29.745562,2.001553
-2.695871,11.511322,-1.446098
7.28795,-10.630256,-5.023035
4.750097,12.852075,3.394978
19.780895,28.830976,-8.379706
2.312799,1.7573439999999998,1.637634
-4.505887,7.149087,1.575385
0.6943189999999999,16.567875,-4.884171
6.306328,-6.253655,-4.290409
1.278504,8.90643,-0.086191
10.654198,15.193604,4.1707
-4.419696,4.750097,4.209007
28.629864,26.125528,1.331176
3.284845,-0.162806,-4.486733999999999
-2.748543,5.683835,-1.16837
0.617704,-8.178592,-4.668693
16.864758,27.710491,7.958327000000001
2.920926,14.465767,3.040636
8.916007,14.834473999999998,-18.957289000000003
23.530214,11.463438,-3.648763
2.542642,11.190498,2.853889
4.505888,-11.693281,-3.294421
20.867863,26.187778,10.357317
-2.020706,14.121001,1.177947
7.1395100000000005,-11.372458,-5.401319
-0.3734949999999999,8.236054,1.910573
-6.847417,5.377377,-7.091625
6.737284,-10.098742,-1.6998830000000005
22.596476000000003,29.745562,2.001553
-2.695871,11.511322,-1.446098
7.28795,-10.630256,-5.023035
4.750097,12.852075,3.394978
19.780895,28.830976,-8.379706
2.312799,1.7573439999999998,1.637634
-4.505887,7.149087,1.575385
0.6943189999999999,16.567875,-4.884171
6.306328,-6.253655,-4.290409
1.278504,8.90643,-0.086191
10.654198,15.193604,4.1707
11.63582,7.273585000000001,-3.20823
-6.708553,3.96001,0.124498
3.284845,-0.162806,-4.486733999999999
-2.748543,5.683835,-1.16837
0.617704,-8.178592,-4.668693
16.864758,27.710491,7.958327000000001
2.920926,14.465767,3.040636
8.916007,14.834473999999998,-18.957289000000003
23.530214,11.463438,-3.648763
2.542642,11.190498,2.853889
4.505888,-11.693281,-3.294421
20.867863,26.187778,10.357317
-2.020706,14.121001,1.177947
7.1395100000000005,-11.372458,-5.401319
-0.3734949999999999,8.236054,1.910573
-6.847417,5.377377,-7.091625
6.737284,-10.098742,-1.6998830000000005
22.596476000000003,29.745562,2.001553
-2.695871,11.511322,-1.446098
7.28795,-10.630256,-5.023035
4.750097,12.852075,3.394978
19.780895,28.830976,-8.379706
2.312799,1.7573439999999998,1.637634
-4.505887,7.149087,1.575385
0.6943189999999999,16.567875,-4.884171
6.306328,-6.253655,-4.290409
1.278504,8.90643,-0.086191
10.654198,15.193604,4.1707
11.63582,7.273585000000001,-3.20823
-6.708553,3.96001,0.124498
-2.973598,-7.072471000000001,-5.947197
26.791117,30.597898,-2.240973
0.617704,-8.178592,-4.668693
16.864758,27.710491,7.958327000000001
2.920926,14.465767,3.040636
8.916007,14.834473999999998,-18.957289000000003
23.530214,11.463438,-3.648763
2.542642,11.190498,2.853889
4.505888,-11.693281,-3.294421
20.867863,26.187778,10.357317
-2.020706,14.121001,1.177947
7.1395100000000005,-11.372458,-5.401319
-0.3734949999999999,8.236054,1.910573
-6.847417,5.377377,-7.091625
6.737284,-10.098742,-1.6998830000000005
22.596476000000003,29.745562,2.001553
-2.695871,11.511322,-1.446098
7.28795,-10.630256,-5.023035
4.750097,12.852075,3.394978
19.780895,28.830976,-8.379706
2.312799,1.7573439999999998,1.637634
-4.505887,7.149087,1.575385
0.6943189999999999,16.567875,-4.884171
6.306328,-6.253655,-4.290409
1.278504,8.90643,-0.086191
10.654198,15.193604,4.1707
11.63582,7.273585000000001,-3.20823
-6.708553,3.96001,0.124498
-2.973598,-7.072471000000001,-5.947197
26.791117,30.597898,-2.240973
-0.7852979999999999,7.302314999999999,7.426814
26.503813,30.775068,-7.781155
2.920926,14.465767,3.040636
8.916007,14.834473999999998,-18.957289000000003
23.530214,11.463438,-3.648763
2.542642,11.190498,2.853889
4.505888,-11.693281,-3.294421
20.867863,26.187778,10.357317
-2.020706,14.121001,1.177947
7.1395100000000005,-11.372458,-5.401319
-0.3734949999999999,8.236054,1.910573
-6.847417,5.377377,-7.091625
6.737284,-10.098742,-1.6998830000000005
22.596476000000003,29.745562,2.001553
-2.695871,11.511322,-1.446098
7.28795,-10.630256,-5.023035
4.750097,12.852075,3.394978
19.780895,28.830976,-8.379706
2.312799,1.7573439999999998,1.637634
-4.505887,7.149087,1.575385
0.6943189999999999,16.567875,-4.884171
6.306328,-6.253655,-4.290409
1.278504,8.90643,-0.086191
10.654198,15.193604,4.1707
11.63582,7.273585000000001,-3.20823
-6.708553,3.96001,0.124498
-2.973598,-7.072471000000001,-5.947197
26.791117,30.597898,-2.240973
-0.7852979999999999,7.302314999999999,7.426814
26.503813,30.775068,-7.781155
10.994174,-3.131616,-0.459687
-3.217807,6.986281,3.409343
23.530214,11.463438,-3.648763
2.542642,11.190498,2.853889
4.505888,-11.693281,-3.294421
20.867863,26.187778,10.357317
-2.020706,14.121001,1.177947
7.1395100000000005,-11.372458,-5.401319
-0.3734949999999999,8.236054,1.910573
-6.847417,5.377377,-7.091625
6.737284,-10.098742,-1.6998830000000005
22.596476000000003,29.745562,2.001553
-2.695871,11.511322,-1.446098
7.28795,-10.630256,-5.023035
4.750097,12.852075,3.394978
19.780895,28.830976,-8.379706
2.312799,1.7573439999999998,1.637634
-4.505887,7.149087,1.575385
0.6943189999999999,16.567875,-4.884171
6.306328,-6.253655,-4.290409
1.278504,8.90643,-0.086191
10.654198,15.193604,4.1707
11.63582,7.273585000000001,-3.20823
-6.708553,3.96001,0.124498
-2.973598,-7.072471000000001,-5.947197
26.791117,30.597898,-2.240973
-0.7852979999999999,7.302314999999999,7.426814
26.503813,30.775068,-7.781155
10.994174,-3.131616,-0.459687
-3.217807,6.986281,3.409343
10.371682,-1.608903,-2.801216
25.718515,16.247053,-6.488286
5.214572,20.910957,8.30788
0.565032,-9.792285,-0.325611
-2.738967,4.458004,8.255207
-2.585738,7.244855,0.521936
-2.140416,-19.938911,-2.284068
30.119057,23.142353,-16.376339
-4.165911,7.268797,2.226608
-1.522712,-15.916653,1.92015
12.909535,28.543673,0.354342
-0.11971,16.591818,-0.071826
4.644751,-16.098612,-2.715025
5.736508000000001,13.55597,7.354988
-8.006210000000001,5.315128,2.284068
7.886500999999999,-12.397177,1.120486
30.674513,24.890121,-4.079719
1.187524,13.072341,-1.953669
1.44131,-14.585477,3.610456
6.0286,17.889475,-0.732626
15.35641,25.665842,-2.499546
0.550666,-3.926491,0.895431
-3.246537,8.75799,-3.605668
-1.345541,5.391742,-1.359906
17.860744,-3.758896,-3.394978
18.689138,22.256498,-1.335964
-0.143652,8.240842,-0.7038949999999999
0.80924,-20.618866,-1.489193
15.629349,29.8126,2.30801
15.528792,30.004135,10.548853
-0.205901,-14.528016,-1.479617
14.54717,4.592079,4.553772
4.505888,-11.693281,-3.294421
20.867863,26.187778,10.357317
-2.020706,14.121001,1.177947
7.1395100000000005,-11.372458,-5.401319
-0.3734949999999999,8.236054,1.910573
-6.847417,5.377377,-7.091625
6.737284,-10.098742,-1.6998830000000005
22.596476000000003,29.745562,2.001553
-2.695871,11.511322,-1.446098
7.28795,-10.630256,-5.023035
4.750097,12.852075,3.394978
19.780895,28.830976,-8.379706
2.312799,1.7573439999999998,1.637634
-4.505887,7.149087,1.575385
0.6943189999999999,16.567875,-4.884171
6.306328,-6.253655,-4.290409
1.278504,8.90643,-0.086191
10.654198,15.193604,4.1707
11.63582,7.273585000000001,-3.20823
-6.708553,3.96001,0.124498
-2.973598,-7.072471000000001,-5.947197
26.791117,30.597898,-2.240973
-0.7852979999999999,7.302314999999999,7.426814
26.503813,30.775068,-7.781155
10.994174,-3.131616,-0.459687
-3.217807,6.986281,3.409343
10.371682,-1.608903,-2.801216
25.718515,16.247053,-6.488286
-3.600879,6.684612,-2.375048
10.534488,-12.382812,-3.44765
-2.020706,14.121001,1.177947
7.1395100000000005,-11.372458,-5.401319
-0.3734949999999999,8.236054,1.910573
-6.847417,5.377377,-7.091625
6.737284,-10.098742,-1.6998830000000005
22.596476000000003,29.745562,2.001553
-2.695871,11.511322,-1.446098
7.28795,-10.630256,-5.023035
4.750097,12.852075,3.394978
19.780895,28.830976,-8.379706
2.312799,1.7573439999999998,1.637634
-4.505887,7.149087,1.575385
0.6943189999999999,16.567875,-4.884171
6.306328,-6.253655,-4.290409
1.278504,8.90643,-0.086191
10.654198,15.193604,4.1707
11.63582,7.273585000000001,-3.20823
-6.708553,3.96001,0.124498
-2.973598,-7.072471000000001,-5.947197
26.791117,30.597898,-2.240973
-0.7852979999999999,7.302314999999999,7.426814
26.503813,30.775068,-7.781155
10.994174,-3.131616,-0.459687
-3.217807,6.986281,3.409343
10.371682,-1.608903,-2.801216
25.718515,16.247053,-6.488286
-3.600879,6.684612,-2.375048
10.534488,-12.382812,-3.44765
6.737284,-1.431733,0.737414
-3.203442,6.44998,-2.504335
-0.3734949999999999,8.236054,1.910573
-6.847417,5.377377,-7.091625
6.737284,-10.098742,-1.6998830000000005
22.596476000000003,29.745562,2.001553
-2.695871,11.511322,-1.446098
7.28795,-10.630256,-5.023035
4.750097,12.852075,3.394978
19.780895,28.830976,-8.379706
2.312799,1.7573439999999998,1.637634
-4.505887,7.149087,1.575385
0.6943189999999999,16.567875,-4.884171
6.306328,-6.253655,-4.290409
1.278504,8.90643,-0.086191
10.654198,15.193604,4.1707
11.63582,7.273585000000001,-3.20823
-6.708553,3.96001,0.124498
-2.973598,-7.072471000000001,-5.947197
26.791117,30.597898,-2.240973
-0.7852979999999999,7.302314999999999,7.426814
26.503813,30.775068,-7.781155
10.994174,-3.131616,-0.459687
-3.217807,6.986281,3.409343
10.371682,-1.608903,-2.801216
25.718515,16.247053,-6.488286
-3.600879,6.684612,-2.375048
10.534488,-12.382812,-3.44765
6.737284,-1.431733,0.737414
-3.203442,6.44998,-2.504335
7.077260000000001,-2.30801,-0.0909799999999999
18.650831,23.065739,12.3876
6.737284,-10.098742,-1.6998830000000005
22.596476000000003,29.745562,2.001553
-2.695871,11.511322,-1.446098
7.28795,-10.630256,-5.023035
4.750097,12.852075,3.394978
19.780895,28.830976,-8.379706
2.312799,1.7573439999999998,1.637634
-4.505887,7.149087,1.575385
0.6943189999999999,16.567875,-4.884171
6.306328,-6.253655,-4.290409
1.278504,8.90643,-0.086191
10.654198,15.193604,4.1707
11.63582,7.273585000000001,-3.20823
-6.708553,3.96001,0.124498
-2.973598,-7.072471000000001,-5.947197
26.791117,30.597898,-2.240973
-0.7852979999999999,7.302314999999999,7.426814
26.503813,30.775068,-7.781155
10.994174,-3.131616,-0.459687
-3.217807,6.986281,3.409343
10.371682,-1.608903,-2.801216
25.718515,16.247053,-6.488286
-3.600879,6.684612,-2.375048
10.534488,-12.382812,-3.44765
6.737284,-1.431733,0.737414
-3.203442,6.44998,-2.504335
7.077260000000001,-2.30801,-0.0909799999999999
18.650831,23.065739,12.3876
1.000776,13.862428,1.412579
5.506664,-7.996633,-2.442086
-2.695871,11.511322,-1.446098
7.28795,-10.630256,-5.023035
4.750097,12.852075,3.394978
19.780895,28.830976,-8.379706
2.312799,1.7573439999999998,1.637634
-4.505887,7.149087,1.575385
0.6943189999999999,16.567875,-4.884171
6.306328,-6.253655,-4.290409
1.278504,8.90643,-0.086191
10.654198,15.193604,4.1707
11.63582,7.273585000000001,-3.20823
-6.708553,3.96001,0.124498
-2.973598,-7.072471000000001,-5.947197
26.791117,30.597898,-2.240973
-0.7852979999999999,7.302314999999999,7.426814
26.503813,30.775068,-7.781155
10.994174,-3.131616,-0.459687
-3.217807,6.986281,3.409343
10.371682,-1.608903,-2.801216
25.718515,16.247053,-6.488286
-3.600879,6.684612,-2.375048
10.534488,-12.382812,-3.44765
6.737284,-1.431733,0.737414
-3.203442,6.44998,-2.504335
7.077260000000001,-2.30801,-0.0909799999999999
18.650831,23.065739,12.3876
1.000776,13.862428,1.412579
5.506664,-7.996633,-2.442086
5.602432,10.208876,4.563349
22.582111,25.321077,0.014365
4.750097,12.852075,3.394978
19.780895,28.830976,-8.379706
2.312799,1.7573439999999998,1.637634
-4.505887,7.149087,1.575385
0.6943189999999999,16.567875,-4.884171
6.306328,-6.253655,-4.290409
1.278504,8.90643,-0.086191
10.654198,15.193604,4.1707
11.63582,7.273585000000001,-3.20823
-6.708553,3.96001,0.124498
-2.973598,-7.072471000000001,-5.947197
26.791117,30.597898,-2.240973
-0.7852979999999999,7.302314999999999,7.426814
26.503813,30.775068,-7.781155
10.994174,-3.131616,-0.459687
-3.217807,6.986281,3.409343
10.371682,-1.608903,-2.801216
25.718515,16.247053,-6.488286
-3.600879,6.684612,-2.375048
10.534488,-12.382812,-3.44765
6.737284,-1.431733,0.737414
-3.203442,6.44998,-2.504335
7.077260000000001,-2.30801,-0.0909799999999999
18.650831,23.065739,12.3876
1.000776,13.862428,1.412579
5.506664,-7.996633,-2.442086
5.602432,10.208876,4.563349
22.582111,25.321077,0.014365
0.3830719999999999,-12.832921,-0.976834
4.505888,23.716963,3.241749
2.312799,1.7573439999999998,1.637634
-4.505887,7.149087,1.575385
0.6943189999999999,16.567875,-4.884171
6.306328,-6.253655,-4.290409
1.278504,8.90643,-0.086191
10.654198,15.193604,4.1707
11.63582,7.273585000000001,-3.20823
-6.708553,3.96001,0.124498
-2.973598,-7.072471000000001,-5.947197
26.791117,30.597898,-2.240973
-0.7852979999999999,7.302314999999999,7.426814
26.503813,30.775068,-7.781155
10.994174,-3.131616,-0.459687
-3.217807,6.986281,3.409343
10.371682,-1.608903,-2.801216
25.718515,16.247053,-6.488286
-3.600879,6.684612,-2.375048
10.534488,-12.382812,-3.44765
6.737284,-1.431733,0.737414
-3.203442,6.44998,-2.504335
7.077260000000001,-2.30801,-0.0909799999999999
18.650831,23.065739,12.3876
1.000776,13.862428,1.412579
5.506664,-7.996633,-2.442086
5.602432,10.208876,4.563349
22.582111,25.321077,0.014365
0.3830719999999999,-12.832921,-0.976834
4.505888,23.716963,3.241749
2.164359,17.611748000000002,-5.324704
4.094085,-11.525687,-4.951209
0.6943189999999999,16.567875,-4.884171
6.306328,-6.253655,-4.290409
1.278504,8.90643,-0.086191
10.654198,15.193604,4.1707
11.63582,7.273585000000001,-3.20823
-6.708553,3.96001,0.124498
-2.973598,-7.072471000000001,-5.947197
26.791117,30.597898,-2.240973
-0.7852979999999999,7.302314999999999,7.426814
26.503813,30.775068,-7.781155
10.994174,-3.131616,-0.459687
-3.217807,6.986281,3.409343
10.371682,-1.608903,-2.801216
25.718515,16.247053,-6.488286
-3.600879,6.684612,-2.375048
10.534488,-12.382812,-3.44765
6.737284,-1.431733,0.737414
-3.203442,6.44998,-2.504335
7.077260000000001,-2.30801,-0.0909799999999999
18.650831,23.065739,12.3876
1.000776,13.862428,1.412579
5.506664,-7.996633,-2.442086
5.602432,10.208876,4.563349
22.582111,25.321077,0.014365
0.3830719999999999,-12.832921,-0.976834
4.505888,23.716963,3.241749
2.164359,17.611748000000002,-5.324704
4.094085,-11.525687,-4.951209
2.949657,13.943829999999998,5.7700260000000005
25.244461,29.11828,-3.347094
1.278504,8.90643,-0.086191
10.654198,15.193604,4.1707
11.63582,7.273585000000001,-3.20823
-6.708553,3.96001,0.124498
-2.973598,-7.072471000000001,-5.947197
26.791117,30.597898,-2.240973
-0.7852979999999999,7.302314999999999,7.426814
26.503813,30.775068,-7.781155
10.994174,-3.131616,-0.459687
-3.217807,6.986281,3.409343
10.371682,-1.608903,-2.801216
25.718515,16.247053,-6.488286
-3.600879,6.684612,-2.375048
10.534488,-12.382812,-3.44765
6.737284,-1.431733,0.737414
-3.203442,6.44998,-2.504335
7.077260000000001,-2.30801,-0.0909799999999999
18.650831,23.065739,12.3876
1.000776,13.862428,1.412579
5.506664,-7.996633,-2.442086
5.602432,10.208876,4.563349
22.582111,25.321077,0.014365
0.3830719999999999,-12.832921,-0.976834
4.505888,23.716963,3.241749
2.164359,17.611748000000002,-5.324704
4.094085,-11.525687,-4.951209
2.949657,13.943829999999998,5.7700260000000005
25.244461,29.11828,-3.347094
6.047754,-3.86903,-2.355894
-7.105989999999999,5.78918,1.604115
11.63582,7.273585000000001,-3.20823
-6.708553,3.96001,0.124498
-2.973598,-7.072471000000001,-5.947197
26.791117,30.597898,-2.240973
-0.7852979999999999,7.302314999999999,7.426814
26.503813,30.775068,-7.781155
10.994174,-3.131616,-0.459687
-3.217807,6.986281,3.409343
10.371682,-1.608903,-2.801216
25.718515,16.247053,-6.488286
-3.600879,6.684612,-2.375048
10.534488,-12.382812,-3.44765
6.737284,-1.431733,0.737414
-3.203442,6.44998,-2.504335
7.077260000000001,-2.30801,-0.0909799999999999
18.650831,23.065739,12.3876
1.000776,13.862428,1.412579
5.506664,-7.996633,-2.442086
5.602432,10.208876,4.563349
22.582111,25.321077,0.014365
0.3830719999999999,-12.832921,-0.976834
4.505888,23.716963,3.241749
2.164359,17.611748000000002,-5.324704
4.094085,-11.525687,-4.951209
2.949657,13.943829999999998,5.7700260000000005
25.244461,29.11828,-3.347094
6.047754,-3.86903,-2.355894
-7.105989999999999,5.78918,1.604115
5.195418,16.888699,7.900866000000001
7.407660000000001,-13.306973,-1.316811
-2.738967,4.458004,8.255207
-2.585738,7.244855,0.521936
-2.140416,-19.938911,-2.284068
30.119057,23.142353,-16.376339
-4.165911,7.268797,2.226608
-1.522712,-15.916653,1.92015
12.909535,28.543673,0.354342
-0.11971,16.591818,-0.071826
4.644751,-16.098612,-2.715025
5.736508000000001,13.55597,7.354988
-8.006210000000001,5.315128,2.284068
7.886500999999999,-12.397177,1.120486
30.674513,24.890121,-4.079719
1.187524,13.072341,-1.953669
1.44131,-14.585477,3.610456
6.0286,17.889475,-0.732626
15.35641,25.665842,-2.499546
0.550666,-3.926491,0.895431
-3.246537,8.75799,-3.605668
-1.345541,5.391742,-1.359906
17.860744,-3.758896,-3.394978
18.689138,22.256498,-1.335964
-0.143652,8.240842,-0.7038949999999999
0.80924,-20.618866,-1.489193
15.629349,29.8126,2.30801
15.528792,30.004135,10.548853
-0.205901,-14.528016,-1.479617
14.54717,4.592079,4.553772
-8.231264999999999,4.299987000000001,1.968034
18.784906,-11.453861,1.766921
-2.973598,-7.072471000000001,-5.947197
26.791117,30.597898,-2.240973
-0.7852979999999999,7.302314999999999,7.426814
26.503813,30.775068,-7.781155
10.994174,-3.131616,-0.459687
-3.217807,6.986281,3.409343
10.371682,-1.608903,-2.801216
25.718515,16.247053,-6.488286
-3.600879,6.684612,-2.375048
10.534488,-12.382812,-3.44765
6.737284,-1.431733,0.737414
-3.203442,6.44998,-2.504335
7.077260000000001,-2.30801,-0.0909799999999999
18.650831,23.065739,12.3876
1.000776,13.862428,1.412579
5.506664,-7.996633,-2.442086
5.602432,10.208876,4.563349
22.582111,25.321077,0.014365
0.3830719999999999,-12.832921,-0.976834
4.505888,23.716963,3.241749
2.164359,17.611748000000002,-5.324704
4.094085,-11.525687,-4.951209
2.949657,13.943829999999998,5.7700260000000005
25.244461,29.11828,-3.347094
6.047754,-3.86903,-2.355894
-7.105989999999999,5.78918,1.604115
5.195418,16.888699,7.900866000000001
7.407660000000001,-13.306973,-1.316811
6.675035,16.247053,-2.437297
29.850906,35.199554,-15.318103
-0.7852979999999999,7.302314999999999,7.426814
26.503813,30.775068,-7.781155
10.994174,-3.131616,-0.459687
-3.217807,6.986281,3.409343
10.371682,-1.608903,-2.801216
25.718515,16.247053,-6.488286
-3.600879,6.684612,-2.375048
10.534488,-12.382812,-3.44765
6.737284,-1.431733,0.737414
-3.203442,6.44998,-2.504335
7.077260000000001,-2.30801,-0.0909799999999999
18.650831,23.065739,12.3876
1.000776,13.862428,1.412579
5.506664,-7.996633,-2.442086
5.602432,10.208876,4.563349
22.582111,25.321077,0.014365
0.3830719999999999,-12.832921,-0.976834
4.505888,23.716963,3.241749
2.164359,17.611748000000002,-5.324704
4.094085,-11.525687,-4.951209
2.949657,13.943829999999998,5.7700260000000005
25.244461,29.11828,-3.347094
6.047754,-3.86903,-2.355894
-7.105989999999999,5.78918,1.604115
5.195418,16.888699,7.900866000000001
7.407660000000001,-13.306973,-1.316811
6.675035,16.247053,-2.437297
29.850906,35.199554,-15.318103
0.35913,-0.80924,-5.090072
-5.430049,4.620809,-2.466028
10.994174,-3.131616,-0.459687
-3.217807,6.986281,3.409343
10.371682,-1.608903,-2.801216
25.718515,16.247053,-6.488286
-3.600879,6.684612,-2.375048
10.534488,-12.382812,-3.44765
6.737284,-1.431733,0.737414
-3.203442,6.44998,-2.504335
7.077260000000001,-2.30801,-0.0909799999999999
18.650831,23.065739,12.3876
1.000776,13.862428,1.412579
5.506664,-7.996633,-2.442086
5.602432,10.208876,4.563349
22.582111,25.321077,0.014365
0.3830719999999999,-12.832921,-0.976834
4.505888,23.716963,3.241749
2.164359,17.611748000000002,-5.324704
4.094085,-11.525687,-4.951209
2.949657,13.943829999999998,5.7700260000000005
25.244461,29.11828,-3.347094
6.047754,-3.86903,-2.355894
-7.105989999999999,5.78918,1.604115
5.195418,16.888699,7.900866000000001
7.407660000000001,-13.306973,-1.316811
6.675035,16.247053,-2.437297
29.850906,35.199554,-15.318103
0.35913,-0.80924,-5.090072
-5.430049,4.620809,-2.466028
-5.00867,-8.451532,-5.200206
17.056293,37.330395,5.621586
10.371682,-1.608903,-2.801216
25.718515,16.247053,-6.488286
-3.600879,6.684612,-2.375048
10.534488,-12.382812,-3.44765
6.737284,-1.431733,0.737414
-3.203442,6.44998,-2.504335
7.077260000000001,-2.30801,-0.0909799999999999
18.650831,23.065739,12.3876
1.000776,13.862428,1.412579
5.506664,-7.996633,-2.442086
5.602432,10.208876,4.563349
22.582111,25.321077,0.014365
0.3830719999999999,-12.832921,-0.976834
4.505888,23.716963,3.241749
2.164359,17.611748000000002,-5.324704
4.094085,-11.525687,-4.951209
2.949657,13.943829999999998,5.7700260000000005
25.244461,29.11828,-3.347094
6.047754,-3.86903,-2.355894
-7.105989999999999,5.78918,1.604115
5.195418,16.888699,7.900866000000001
7.407660000000001,-13.306973,-1.316811
6.675035,16.247053,-2.437297
29.850906,35.199554,-15.318103
0.35913,-0.80924,-5.090072
-5.430049,4.620809,-2.466028
-5.00867,-8.451532,-5.200206
17.056293,37.330395,5.621586
2.695871,11.626244,-1.082179
8.681376,12.124237,-4.94642
-3.600879,6.684612,-2.375048
10.534488,-12.382812,-3.44765
6.737284,-1.431733,0.737414
-3.203442,6.44998,-2.504335
7.077260000000001,-2.30801,-0.0909799999999999
18.650831,23.065739,12.3876
1.000776,13.862428,1.412579
5.506664,-7.996633,-2.442086
5.602432,10.208876,4.563349
22.582111,25.321077,0.014365
0.3830719999999999,-12.832921,-0.976834
4.505888,23.716963,3.241749
2.164359,17.611748000000002,-5.324704
4.094085,-11.525687,-4.951209
2.949657,13.943829999999998,5.7700260000000005
25.244461,29.11828,-3.347094
6.047754,-3.86903,-2.355894
-7.105989999999999,5.78918,1.604115
5.195418,16.888699,7.900866000000001
7.407660000000001,-13.306973,-1.316811
6.675035,16.247053,-2.437297
29.850906,35.199554,-15.318103
0.35913,-0.80924,-5.090072
-5.430049,4.620809,-2.466028
-5.00867,-8.451532,-5.200206
17.056293,37.330395,5.621586
2.695871,11.626244,-1.082179
8.681376,12.124237,-4.94642
20.283676,16.596605,-9.662998
-6.813898,8.456321,-1.221043
6.737284,-1.431733,0.737414
-3.203442,6.44998,-2.504335
7.077260000000001,-2.30801,-0.0909799999999999
18.650831,23.065739,12.3876
1.000776,13.862428,1.412579
5.506664,-7.996633,-2.442086
5.602432,10.208876,4.563349
22.582111,25.321077,0.014365
0.3830719999999999,-12.832921,-0.976834
4.505888,23.716963,3.241749
2.164359,17.611748000000002,-5.324704
4.094085,-11.525687,-4.951209
2.949657,13.943829999999998,5.7700260000000005
25.244461,29.11828,-3.347094
6.047754,-3.86903,-2.355894
-7.105989999999999,5.78918,1.604115
5.195418,16.888699,7.900866000000001
7.407660000000001,-13.306973,-1.316811
6.675035,16.247053,-2.437297
29.850906,35.199554,-15.318103
0.35913,-0.80924,-5.090072
-5.430049,4.620809,-2.466028
-5.00867,-8.451532,-5.200206
17.056293,37.330395,5.621586
2.695871,11.626244,-1.082179
8.681376,12.124237,-4.94642
20.283676,16.596605,-9.662998
-6.813898,8.456321,-1.221043
13.910312,-10.682928,-5.717354
7.656657000000001,15.452178,5.961562000000001
7.077260000000001,-2.30801,-0.0909799999999999
18.650831,23.065739,12.3876
1.000776,13.862428,1.412579
5.506664,-7.996633,-2.442086
5.602432,10.208876,4.563349
22.582111,25.321077,0.014365
0.3830719999999999,-12.832921,-0.976834
4.505888,23.716963,3.241749
2.164359,17.611748000000002,-5.324704
4.094085,-11.525687,-4.951209
2.949657,13.943829999999998,5.7700260000000005
25.244461,29.11828,-3.347094
6.047754,-3.86903,-2.355894
-7.105989999999999,5.78918,1.604115
5.195418,16.888699,7.900866000000001
7.407660000000001,-13.306973,-1.316811
6.675035,16.247053,-2.437297
29.850906,35.199554,-15.318103
0.35913,-0.80924,-5.090072
-5.430049,4.620809,-2.466028
-5.00867,-8.451532,-5.200206
17.056293,37.330395,5.621586
2.695871,11.626244,-1.082179
8.681376,12.124237,-4.94642
20.283676,16.596605,-9.662998
-6.813898,8.456321,-1.221043
13.910312,-10.682928,-5.717354
7.656657000000001,15.452178,5.961562000000001
13.967772,29.659370000000003,6.852206
3.2321720000000003,-5.894524,-7.206547
1.000776,13.862428,1.412579
5.506664,-7.996633,-2.442086
5.602432,10.208876,4.563349
22.582111,25.321077,0.014365
0.3830719999999999,-12.832921,-0.976834
4.505888,23.716963,3.241749
2.164359,17.611748000000002,-5.324704
4.094085,-11.525687,-4.951209
2.949657,13.943829999999998,5.7700260000000005
25.244461,29.11828,-3.347094
6.047754,-3.86903,-2.355894
-7.105989999999999,5.78918,1.604115
5.195418,16.888699,7.900866000000001
7.407660000000001,-13.306973,-1.316811
6.675035,16.247053,-2.437297
29.850906,35.199554,-15.318103
0.35913,-0.80924,-5.090072
-5.430049,4.620809,-2.466028
-5.00867,-8.451532,-5.200206
17.056293,37.330395,5.621586
2.695871,11.626244,-1.082179
8.681376,12.124237,-4.94642
20.283676,16.596605,-9.662998
-6.813898,8.456321,-1.221043
13.910312,-10.682928,-5.717354
7.656657000000001,15.452178,5.961562000000001
13.967772,29.659370000000003,6.852206
3.2321720000000003,-5.894524,-7.206547
21.787235,28.222849,-5.511451999999999
-0.684742,14.513651,8.863335000000001
5.602432,10.208876,4.563349
22.582111,25.321077,0.014365
0.3830719999999999,-12.832921,-0.976834
4.505888,23.716963,3.241749
2.164359,17.611748000000002,-5.324704
4.094085,-11.525687,-4.951209
2.949657,13.943829999999998,5.7700260000000005
25.244461,29.11828,-3.347094
6.047754,-3.86903,-2.355894
-7.105989999999999,5.78918,1.604115
5.195418,16.888699,7.900866000000001
7.407660000000001,-13.306973,-1.316811
6.675035,16.247053,-2.437297
29.850906,35.199554,-15.318103
0.35913,-0.80924,-5.090072
-5.430049,4.620809,-2.466028
-5.00867,-8.451532,-5.200206
17.056293,37.330395,5.621586
2.695871,11.626244,-1.082179
8.681376,12.124237,-4.94642
20.283676,16.596605,-9.662998
-6.813898,8.456321,-1.221043
13.910312,-10.682928,-5.717354
7.656657000000001,15.452178,5.961562000000001
13.967772,29.659370000000003,6.852206
3.2321720000000003,-5.894524,-7.206547
21.787235,28.222849,-5.511451999999999
-0.684742,14.513651,8.863335000000001
1.886631,-11.200075,-5.765238
6.981492,12.765883,5.597644
0.3830719999999999,-12.832921,-0.976834
4.505888,23.716963,3.241749
2.164359,17.611748000000002,-5.324704
4.094085,-11.525687,-4.951209
2.949657,13.943829999999998,5.7700260000000005
25.244461,29.11828,-3.347094
6.047754,-3.86903,-2.355894
-7.105989999999999,5.78918,1.604115
5.195418,16.888699,7.900866000000001
7.407660000000001,-13.306973,-1.316811
6.675035,16.247053,-2.437297
29.850906,35.199554,-15.318103
0.35913,-0.80924,-5.090072
-5.430049,4.620809,-2.466028
-5.00867,-8.451532,-5.200206
17.056293,37.330395,5.621586
2.695871,11.626244,-1.082179
8.681376,12.124237,-4.94642
20.283676,16.596605,-9.662998
-6.813898,8.456321,-1.221043
13.910312,-10.682928,-5.717354
7.656657000000001,15.452178,5.961562000000001
13.967772,29.659370000000003,6.852206
3.2321720000000003,-5.894524,-7.206547
21.787235,28.222849,-5.511451999999999
-0.684742,14.513651,8.863335000000001
1.886631,-11.200075,-5.765238
6.981492,12.765883,5.597644
34.6441,35.654453000000004,-3.5769370000000005
6.943185000000001,-4.290409,-3.4811690000000004
-2.140416,-19.938911,-2.284068
30.119057,23.142353,-16.376339
-4.165911,7.268797,2.226608
-1.522712,-15.916653,1.92015
12.909535,28.543673,0.354342
-0.11971,16.591818,-0.071826
4.644751,-16.098612,-2.715025
5.736508000000001,13.55597,7.354988
-8.006210000000001,5.315128,2.284068
7.886500999999999,-12.397177,1.120486
30.674513,24.890121,-4.079719
1.187524,13.072341,-1.953669
1.44131,-14.585477,3.610456
6.0286,17.889475,-0.732626
15.35641,25.665842,-2.499546
0.550666,-3.926491,0.895431
-3.246537,8.75799,-3.605668
-1.345541,5.391742,-1.359906
17.860744,-3.758896,-3.394978
18.689138,22.256498,-1.335964
-0.143652,8.240842,-0.7038949999999999
0.80924,-20.618866,-1.489193
15.629349,29.8126,2.30801
15.528792,30.004135,10.548853
-0.205901,-14.528016,-1.479617
14.54717,4.592079,4.553772
-8.231264999999999,4.299987000000001,1.968034
18.784906,-11.453861,1.766921
15.787366,15.883134,-1.628057
-2.202665,9.428367,-2.020706
2.164359,17.611748000000002,-5.324704
4.094085,-11.525687,-4.951209
2.949657,13.943829999999998,5.7700260000000005
25.244461,29.11828,-3.347094
6.047754,-3.86903,-2.355894
-7.105989999999999,5.78918,1.604115
5.195418,16.888699,7.900866000000001
7.407660000000001,-13.306973,-1.316811
6.675035,16.247053,-2.437297
29.850906,35.199554,-15.318103
0.35913,-0.80924,-5.090072
-5.430049,4.620809,-2.466028
-5.00867,-8.451532,-5.200206
17.056293,37.330395,5.621586
2.695871,11.626244,-1.082179
8.681376,12.124237,-4.94642
20.283676,16.596605,-9.662998
-6.813898,8.456321,-1.221043
13.910312,-10.682928,-5.717354
7.656657000000001,15.452178,5.961562000000001
13.967772,29.659370000000003,6.852206
3.2321720000000003,-5.894524,-7.206547
21.787235,28.222849,-5.511451999999999
-0.684742,14.513651,8.863335000000001
1.886631,-11.200075,-5.765238
6.981492,12.765883,5.597644
34.6441,35.654453000000004,-3.5769370000000005
6.943185000000001,-4.290409,-3.4811690000000004
-3.031059,6.7277070000000005,-1.580173
18.11453,8.149863,-3.174711
2.949657,13.943829999999998,5.7700260000000005
25.244461,29.11828,-3.347094
6.047754,-3.86903,-2.355894
-7.105989999999999,5.78918,1.604115
5.195418,16.888699,7.900866000000001
7.407660000000001,-13.306973,-1.316811
6.675035,16.247053,-2.437297
29.850906,35.199554,-15.318103
0.35913,-0.80924,-5.090072
-5.430049,4.620809,-2.466028
-5.00867,-8.451532,-5.200206
17.056293,37.330395,5.621586
2.695871,11.626244,-1.082179
8.681376,12.124237,-4.94642
20.283676,16.596605,-9.662998
-6.813898,8.456321,-1.221043
13.910312,-10.682928,-5.717354
7.656657000000001,15.452178,5.961562000000001
13.967772,29.659370000000003,6.852206
3.2321720000000003,-5.894524,-7.206547
21.787235,28.222849,-5.511451999999999
-0.684742,14.513651,8.863335000000001
1.886631,-11.200075,-5.765238
6.981492,12.765883,5.597644
34.6441,35.654453000000004,-3.5769370000000005
6.943185000000001,-4.290409,-3.4811690000000004
-3.031059,6.7277070000000005,-1.580173
18.11453,8.149863,-3.174711
7.436391,-12.401965,-5.281609
6.737284,16.352398,1.848324
6.047754,-3.86903,-2.355894
-7.105989999999999,5.78918,1.604115
5.195418,16.888699,7.900866000000001
7.407660000000001,-13.306973,-1.316811
6.675035,16.247053,-2.437297
29.850906,35.199554,-15.318103
0.35913,-0.80924,-5.090072
-5.430049,4.620809,-2.466028
-5.00867,-8.451532,-5.200206
17.056293,37.330395,5.621586
2.695871,11.626244,-1.082179
8.681376,12.124237,-4.94642
20.283676,16.596605,-9.662998
-6.813898,8.456321,-1.221043
13.910312,-10.682928,-5.717354
7.656657000000001,15.452178,5.961562000000001
13.967772,29.659370000000003,6.852206
3.2321720000000003,-5.894524,-7.206547
21.787235,28.222849,-5.511451999999999
-0.684742,14.513651,8.863335000000001
1.886631,-11.200075,-5.765238
6.981492,12.765883,5.597644
34.6441,35.654453000000004,-3.5769370000000005
6.943185000000001,-4.290409,-3.4811690000000004
-3.031059,6.7277070000000005,-1.580173
18.11453,8.149863,-3.174711
7.436391,-12.401965,-5.281609
6.737284,16.352398,1.848324
35.52038,32.853237,-2.743755
8.365341,1.312023,-3.198653
5.195418,16.888699,7.900866000000001
7.407660000000001,-13.306973,-1.316811
6.675035,16.247053,-2.437297
29.850906,35.199554,-15.318103
0.35913,-0.80924,-5.090072
-5.430049,4.620809,-2.466028
-5.00867,-8.451532,-5.200206
17.056293,37.330395,5.621586
2.695871,11.626244,-1.082179
8.681376,12.124237,-4.94642
20.283676,16.596605,-9.662998
-6.813898,8.456321,-1.221043
13.910312,-10.682928,-5.717354
7.656657000000001,15.452178,5.961562000000001
13.967772,29.659370000000003,6.852206
3.2321720000000003,-5.894524,-7.206547
21.787235,28.222849,-5.511451999999999
-0.684742,14.513651,8.863335000000001
1.886631,-11.200075,-5.765238
6.981492,12.765883,5.597644
34.6441,35.654453000000004,-3.5769370000000005
6.943185000000001,-4.290409,-3.4811690000000004
-3.031059,6.7277070000000005,-1.580173
18.11453,8.149863,-3.174711
7.436391,-12.401965,-5.281609
6.737284,16.352398,1.848324
35.52038,32.853237,-2.743755
8.365341,1.312023,-3.198653
-3.696647,4.419697,-1.814805
-1.541866,-11.042058,-8.231264999999999
6.675035,16.247053,-2.437297
29.850906,35.199554,-15.318103
0.35913,-0.80924,-5.090072
-5.430049,4.620809,-2.466028
-5.00867,-8.451532,-5.200206
17.056293,37.330395,5.621586
2.695871,11.626244,-1.082179
8.681376,12.124237,-4.94642
20.283676,16.596605,-9.662998
-6.813898,8.456321,-1.221043
13.910312,-10.682928,-5.717354
7.656657000000001,15.452178,5.961562000000001
13.967772,29.659370000000003,6.852206
3.2321720000000003,-5.894524,-7.206547
21.787235,28.222849,-5.511451999999999
-0.684742,14.513651,8.863335000000001
1.886631,-11.200075,-5.765238
6.981492,12.765883,5.597644
34.6441,35.654453000000004,-3.5769370000000005
6.943185000000001,-4.290409,-3.4811690000000004
-3.031059,6.7277070000000005,-1.580173
18.11453,8.149863,-3.174711
7.436391,-12.401965,-5.281609
6.737284,16.352398,1.848324
35.52038,32.853237,-2.743755
8.365341,1.312023,-3.198653
-3.696647,4.419697,-1.814805
-1.541866,-11.042058,-8.231264999999999
14.829685,33.154903000000004,3.979163
-4.735731,14.302960999999998,1.182736
0.35913,-0.80924,-5.090072
-5.430049,4.620809,-2.466028
-5.00867,-8.451532,-5.200206
17.056293,37.330395,5.621586
2.695871,11.626244,-1.082179
8.681376,12.124237,-4.94642
20.283676,16.596605,-9.662998
-6.813898,8.456321,-1.221043
13.910312,-10.682928,-5.717354
7.656657000000001,15.452178,5.961562000000001
13.967772,29.659370000000003,6.852206
3.2321720000000003,-5.894524,-7.206547
21.787235,28.222849,-5.511451999999999
-0.684742,14.513651,8.863335000000001
1.886631,-11.200075,-5.765238
6.981492,12.765883,5.597644
34.6441,35.654453000000004,-3.5769370000000005
6.943185000000001,-4.290409,-3.4811690000000004
-3.031059,6.7277070000000005,-1.580173
18.11453,8.149863,-3.174711
7.436391,-12.401965,-5.281609
6.737284,16.352398,1.848324
35.52038,32.853237,-2.743755
8.365341,1.312023,-3.198653
-3.696647,4.419697,-1.814805
-1.541866,-11.042058,-8.231264999999999
14.829685,33.154903000000004,3.979163
-4.735731,14.302960999999998,1.182736
6.287173999999999,-13.311762,-4.13718
11.631032,4.3574470000000005,-1.642422
-5.00867,-8.451532,-5.200206
17.056293,37.330395,5.621586
2.695871,11.626244,-1.082179
8.681376,12.124237,-4.94642
20.283676,16.596605,-9.662998
-6.813898,8.456321,-1.221043
13.910312,-10.682928,-5.717354
7.656657000000001,15.452178,5.961562000000001
13.967772,29.659370000000003,6.852206
3.2321720000000003,-5.894524,-7.206547
21.787235,28.222849,-5.511451999999999
-0.684742,14.513651,8.863335000000001
1.886631,-11.200075,-5.765238
6.981492,12.765883,5.597644
34.6441,35.654453000000004,-3.5769370000000005
6.943185000000001,-4.290409,-3.4811690000000004
-3.031059,6.7277070000000005,-1.580173
18.11453,8.149863,-3.174711
7.436391,-12.401965,-5.281609
6.737284,16.352398,1.848324
35.52038,32.853237,-2.743755
8.365341,1.312023,-3.198653
-3.696647,4.419697,-1.814805
-1.541866,-11.042058,-8.231264999999999
14.829685,33.154903000000004,3.979163
-4.735731,14.302960999999998,1.182736
6.287173999999999,-13.311762,-4.13718
11.631032,4.3574470000000005,-1.642422
-3.682282,6.038176999999999,0.751779
0.426168,-9.983821,-2.796427
2.695871,11.626244,-1.082179
8.681376,12.124237,-4.94642
20.283676,16.596605,-9.662998
-6.813898,8.456321,-1.221043
13.910312,-10.682928,-5.717354
7.656657000000001,15.452178,5.961562000000001
13.967772,29.659370000000003,6.852206
3.2321720000000003,-5.894524,-7.206547
21.787235,28.222849,-5.511451999999999
-0.684742,14.513651,8.863335000000001
1.886631,-11.200075,-5.765238
6.981492,12.765883,5.597644
34.6441,35.654453000000004,-3.5769370000000005
6.943185000000001,-4.290409,-3.4811690000000004
-3.031059,6.7277070000000005,-1.580173
18.11453,8.149863,-3.174711
7.436391,-12.401965,-5.281609
6.737284,16.352398,1.848324
35.52038,32.853237,-2.743755
8.365341,1.312023,-3.198653
-3.696647,4.419697,-1.814805
-1.541866,-11.042058,-8.231264999999999
14.829685,33.154903000000004,3.979163
-4.735731,14.302960999999998,1.182736
6.287173999999999,-13.311762,-4.13718
11.631032,4.3574470000000005,-1.642422
-3.682282,6.038176999999999,0.751779
0.426168,-9.983821,-2.796427
6.411672,27.897238,1.302446
-3.701436,17.784129999999998,-3.083732
20.283676,16.596605,-9.662998
-6.813898,8.456321,-1.221043
13.910312,-10.682928,-5.717354
7.656657000000001,15.452178,5.961562000000001
13.967772,29.659370000000003,6.852206
3.2321720000000003,-5.894524,-7.206547
21.787235,28.222849,-5.511451999999999
-0.684742,14.513651,8.863335000000001
1.886631,-11.200075,-5.765238
6.981492,12.765883,5.597644
34.6441,35.654453000000004,-3.5769370000000005
6.943185000000001,-4.290409,-3.4811690000000004
-3.031059,6.7277070000000005,-1.580173
18.11453,8.149863,-3.174711
7.436391,-12.401965,-5.281609
6.737284,16.352398,1.848324
35.52038,32.853237,-2.743755
8.365341,1.312023,-3.198653
-3.696647,4.419697,-1.814805
-1.541866,-11.042058,-8.231264999999999
14.829685,33.154903000000004,3.979163
-4.735731,14.302960999999998,1.182736
6.287173999999999,-13.311762,-4.13718
11.631032,4.3574470000000005,-1.642422
-3.682282,6.038176999999999,0.751779
0.426168,-9.983821,-2.796427
6.411672,27.897238,1.302446
-3.701436,17.784129999999998,-3.083732
0.871489,-8.599973,-2.260126
-0.80924,8.542512,7.762002000000001
13.910312,-10.682928,-5.717354
7.656657000000001,15.452178,5.961562000000001
13.967772,29.659370000000003,6.852206
3.2321720000000003,-5.894524,-7.206547
21.787235,28.222849,-5.511451999999999
-0.684742,14.513651,8.863335000000001
1.886631,-11.200075,-5.765238
6.981492,12.765883,5.597644
34.6441,35.654453000000004,-3.5769370000000005
6.943185000000001,-4.290409,-3.4811690000000004
-3.031059,6.7277070000000005,-1.580173
18.11453,8.149863,-3.174711
7.436391,-12.401965,-5.281609
6.737284,16.352398,1.848324
35.52038,32.853237,-2.743755
8.365341,1.312023,-3.198653
-3.696647,4.419697,-1.814805
-1.541866,-11.042058,-8.231264999999999
14.829685,33.154903000000004,3.979163
-4.735731,14.302960999999998,1.182736
6.287173999999999,-13.311762,-4.13718
11.631032,4.3574470000000005,-1.642422
-3.682282,6.038176999999999,0.751779
0.426168,-9.983821,-2.796427
6.411672,27.897238,1.302446
-3.701436,17.784129999999998,-3.083732
0.871489,-8.599973,-2.260126
-0.80924,8.542512,7.762002000000001
8.604761,25.306711,-8.734048
8.39886,-16.462529999999997,3.864242
-4.165911,7.268797,2.226608
-1.522712,-15.916653,1.92015
12.909535,28.543673,0.354342
-0.11971,16.591818,-0.071826
4.644751,-16.098612,-2.715025
5.736508000000001,13.55597,7.354988
-8.006210000000001,5.315128,2.284068
7.886500999999999,-12.397177,1.120486
30.674513,24.890121,-4.079719
1.187524,13.072341,-1.953669
1.44131,-14.585477,3.610456
6.0286,17.889475,-0.732626
15.35641,25.665842,-2.499546
0.550666,-3.926491,0.895431
-3.246537,8.75799,-3.605668
-1.345541,5.391742,-1.359906
17.860744,-3.758896,-3.394978
18.689138,22.256498,-1.335964
-0.143652,8.240842,-0.7038949999999999
0.80924,-20.618866,-1.489193
15.629349,29.8126,2.30801
15.528792,30.004135,10.548853
-0.205901,-14.528016,-1.479617
14.54717,4.592079,4.553772
-8.231264999999999,4.299987000000001,1.968034
18.784906,-11.453861,1.766921
15.787366,15.883134,-1.628057
-2.202665,9.428367,-2.020706
1.915361,-19.531897,-0.71826
16.70674,25.890898,4.161122
13.967772,29.659370000000003,6.852206
3.2321720000000003,-5.894524,-7.206547
21.787235,28.222849,-5.511451999999999
-0.684742,14.513651,8.863335000000001
1.886631,-11.200075,-5.765238
6.981492,12.765883,5.597644
34.6441,35.654453000000004,-3.5769370000000005
6.943185000000001,-4.290409,-3.4811690000000004
-3.031059,6.7277070000000005,-1.580173
18.11453,8.149863,-3.174711
7.436391,-12.401965,-5.281609
6.737284,16.352398,1.848324
35.52038,32.853237,-2.743755
8.365341,1.312023,-3.198653
-3.696647,4.419697,-1.814805
-1.541866,-11.042058,-8.231264999999999
14.829685,33.154903000000004,3.979163
-4.735731,14.302960999999998,1.182736
6.287173999999999,-13.311762,-4.13718
11.631032,4.3574470000000005,-1.642422
-3.682282,6.038176999999999,0.751779
0.426168,-9.983821,-2.796427
6.411672,27.897238,1.302446
-3.701436,17.784129999999998,-3.083732
0.871489,-8.599973,-2.260126
-0.80924,8.542512,7.762002000000001
8.604761,25.306711,-8.734048
8.39886,-16.462529999999997,3.864242
12.229582,23.908499,9.873688
-1.005565,17.27177,21.878216
21.787235,28.222849,-5.511451999999999
-0.684742,14.513651,8.863335000000001
1.886631,-11.200075,-5.765238
6.981492,12.765883,5.597644
34.6441,35.654453000000004,-3.5769370000000005
6.943185000000001,-4.290409,-3.4811690000000004
-3.031059,6.7277070000000005,-1.580173
18.11453,8.149863,-3.174711
7.436391,-12.401965,-5.281609
6.737284,16.352398,1.848324
35.52038,32.853237,-2.743755
8.365341,1.312023,-3.198653
-3.696647,4.419697,-1.814805
-1.541866,-11.042058,-8.231264999999999
14.829685,33.154903000000004,3.979163
-4.735731,14.302960999999998,1.182736
6.287173999999999,-13.311762,-4.13718
11.631032,4.3574470000000005,-1.642422
-3.682282,6.038176999999999,0.751779
0.426168,-9.983821,-2.796427
6.411672,27.897238,1.302446
-3.701436,17.784129999999998,-3.083732
0.871489,-8.599973,-2.260126
-0.80924,8.542512,7.762002000000001
8.604761,25.306711,-8.734048
8.39886,-16.462529999999997,3.864242
12.229582,23.908499,9.873688
-1.005565,17.27177,21.878216
3.979163,-3.011906,-3.150769
-11.927913,1.082179,2.96881
1.886631,-11.200075,-5.765238
6.981492,12.765883,5.597644
34.6441,35.654453000000004,-3.5769370000000005
6.943185000000001,-4.290409,-3.4811690000000004
-3.031059,6.7277070000000005,-1.580173
18.11453,8.149863,-3.174711
7.436391,-12.401965,-5.281609
6.737284,16.352398,1.848324
35.52038,32.853237,-2.743755
8.365341,1.312023,-3.198653
-3.696647,4.419697,-1.814805
-1.541866,-11.042058,-8.231264999999999
14.829685,33.154903000000004,3.979163
-4.735731,14.302960999999998,1.182736
6.287173999999999,-13.311762,-4.13718
11.631032,4.3574470000000005,-1.642422
-3.682282,6.038176999999999,0.751779
0.426168,-9.983821,-2.796427
6.411672,27.897238,1.302446
-3.701436,17.784129999999998,-3.083732
0.871489,-8.599973,-2.260126
-0.80924,8.542512,7.762002000000001
8.604761,25.306711,-8.734048
8.39886,-16.462529999999997,3.864242
12.229582,23.908499,9.873688
-1.005565,17.27177,21.878216
3.979163,-3.011906,-3.150769
-11.927913,1.082179,2.96881
6.488287000000001,6.105214,-6.272808
18.83279,16.017210000000002,-11.018116
34.6441,35.654453000000004,-3.5769370000000005
6.943185000000001,-4.290409,-3.4811690000000004
-3.031059,6.7277070000000005,-1.580173
18.11453,8.149863,-3.174711
7.436391,-12.401965,-5.281609
6.737284,16.352398,1.848324
35.52038,32.853237,-2.743755
8.365341,1.312023,-3.198653
-3.696647,4.419697,-1.814805
-1.541866,-11.042058,-8.231264999999999
14.829685,33.154903000000004,3.979163
-4.735731,14.302960999999998,1.182736
6.287173999999999,-13.311762,-4.13718
11.631032,4.3574470000000005,-1.642422
-3.682282,6.038176999999999,0.751779
0.426168,-9.983821,-2.796427
6.411672,27.897238,1.302446
-3.701436,17.784129999999998,-3.083732
0.871489,-8.599973,-2.260126
-0.80924,8.542512,7.762002000000001
8.604761,25.306711,-8.734048
8.39886,-16.462529999999997,3.864242
12.229582,23.908499,9.873688
-1.005565,17.27177,21.878216
3.979163,-3.011906,-3.150769
-11.927913,1.082179,2.96881
6.488287000000001,6.105214,-6.272808
18.83279,16.017210000000002,-11.018116
-8.169016000000001,-1.532289,2.614468
26.575640000000003,32.57072,4.936844000000001
-3.031059,6.7277070000000005,-1.580173
18.11453,8.149863,-3.174711
7.436391,-12.401965,-5.281609
6.737284,16.352398,1.848324
35.52038,32.853237,-2.743755
8.365341,1.312023,-3.198653
-3.696647,4.419697,-1.814805
-1.541866,-11.042058,-8.231264999999999
14.829685,33.154903000000004,3.979163
-4.735731,14.302960999999998,1.182736
6.287173999999999,-13.311762,-4.13718
11.631032,4.3574470000000005,-1.642422
-3.682282,6.038176999999999,0.751779
0.426168,-9.983821,-2.796427
6.411672,27.897238,1.302446
-3.701436,17.784129999999998,-3.083732
0.871489,-8.599973,-2.260126
-0.80924,8.542512,7.762002000000001
8.604761,25.306711,-8.734048
8.39886,-16.462529999999997,3.864242
12.229582,23.908499,9.873688
-1.005565,17.27177,21.878216
3.979163,-3.011906,-3.150769
-11.927913,1.082179,2.96881
6.488287000000001,6.105214,-6.272808
18.83279,16.017210000000002,-11.018116
-8.169016000000001,-1.532289,2.614468
26.575640000000003,32.57072,4.936844000000001
3.5003230000000003,-2.590526,-4.965574
-3.691859,6.124368,-3.811569
7.436391,-12.401965,-5.281609
6.737284,16.352398,1.848324
35.52038,32.853237,-2.743755
8.365341,1.312023,-3.198653
-3.696647,4.419697,-1.814805
-1.541866,-11.042058,-8.231264999999999
14.829685,33.154903000000004,3.979163
-4.735731,14.302960999999998,1.182736
6.287173999999999,-13.311762,-4.13718
11.631032,4.3574470000000005,-1.642422
-3.682282,6.038176999999999,0.751779
0.426168,-9.983821,-2.796427
6.411672,27.897238,1.302446
-3.701436,17.784129999999998,-3.083732
0.871489,-8.599973,-2.260126
-0.80924,8.542512,7.762002000000001
8.604761,25.306711,-8.734048
8.39886,-16.462529999999997,3.864242
12.229582,23.908499,9.873688
-1.005565,17.27177,21.878216
3.979163,-3.011906,-3.150769
-11.927913,1.082179,2.96881
6.488287000000001,6.105214,-6.272808
18.83279,16.017210000000002,-11.018116
-8.169016000000001,-1.532289,2.614468
26.575640000000003,32.57072,4.936844000000001
3.5003230000000003,-2.590526,-4.965574
-3.691859,6.124368,-3.811569
2.298434,-8.676587,-2.327164
10.94629,28.031313,13.560759
35.52038,32.853237,-2.743755
8.365341,1.312023,-3.198653
-3.696647,4.419697,-1.814805
-1.541866,-11.042058,-8.231264999999999
14.829685,33.154903000000004,3.979163
-4.735731,14.302960999999998,1.182736
6.287173999999999,-13.311762,-4.13718
11.631032,4.3574470000000005,-1.642422
-3.682282,6.038176999999999,0.751779
0.426168,-9.983821,-2.796427
6.411672,27.897238,1.302446
-3.701436,17.784129999999998,-3.083732
0.871489,-8.599973,-2.260126
-0.80924,8.542512,7.762002000000001
8.604761,25.306711,-8.734048
8.39886,-16.462529999999997,3.864242
12.229582,23.908499,9.873688
-1.005565,17.27177,21.878216
3.979163,-3.011906,-3.150769
-11.927913,1.082179,2.96881
6.488287000000001,6.105214,-6.272808
18.83279,16.017210000000002,-11.018116
-8.169016000000001,-1.532289,2.614468
26.575640000000003,32.57072,4.936844000000001
3.5003230000000003,-2.590526,-4.965574
-3.691859,6.124368,-3.811569
2.298434,-8.676587,-2.327164
10.94629,28.031313,13.560759
-1.953669,15.342045,6.804322
5.492299,-11.956643,-16.510414
-3.696647,4.419697,-1.814805
-1.541866,-11.042058,-8.231264999999999
14.829685,33.154903000000004,3.979163
-4.735731,14.302960999999998,1.182736
6.287173999999999,-13.311762,-4.13718
11.631032,4.3574470000000005,-1.642422
-3.682282,6.038176999999999,0.751779
0.426168,-9.983821,-2.796427
6.411672,27.897238,1.302446
-3.701436,17.784129999999998,-3.083732
0.871489,-8.599973,-2.260126
-0.80924,8.542512,7.762002000000001
8.604761,25.306711,-8.734048
8.39886,-16.462529999999997,3.864242
12.229582,23.908499,9.873688
-1.005565,17.27177,21.878216
3.979163,-3.011906,-3.150769
-11.927913,1.082179,2.96881
6.488287000000001,6.105214,-6.272808
18.83279,16.017210000000002,-11.018116
-8.169016000000001,-1.532289,2.614468
26.575640000000003,32.57072,4.936844000000001
3.5003230000000003,-2.590526,-4.965574
-3.691859,6.124368,-3.811569
2.298434,-8.676587,-2.327164
10.94629,28.031313,13.560759
-1.953669,15.342045,6.804322
5.492299,-11.956643,-16.510414
2.475605,6.871359,2.561796
-8.331821000000001,6.052542,-1.40779
14.829685,33.154903000000004,3.979163
-4.735731,14.302960999999998,1.182736
6.287173999999999,-13.311762,-4.13718
11.631032,4.3574470000000005,-1.642422
-3.682282,6.038176999999999,0.751779
0.426168,-9.983821,-2.796427
6.411672,27.897238,1.302446
-3.701436,17.784129999999998,-3.083732
0.871489,-8.599973,-2.260126
-0.80924,8.542512,7.762002000000001
8.604761,25.306711,-8.734048
8.39886,-16.462529999999997,3.864242
12.229582,23.908499,9.873688
-1.005565,17.27177,21.878216
3.979163,-3.011906,-3.150769
-11.927913,1.082179,2.96881
6.488287000000001,6.105214,-6.272808
18.83279,16.017210000000002,-11.018116
-8.169016000000001,-1.532289,2.614468
26.575640000000003,32.57072,4.936844000000001
3.5003230000000003,-2.590526,-4.965574
-3.691859,6.124368,-3.811569
2.298434,-8.676587,-2.327164
10.94629,28.031313,13.560759
-1.953669,15.342045,6.804322
5.492299,-11.956643,-16.510414
2.475605,6.871359,2.561796
-8.331821000000001,6.052542,-1.40779
6.742072,-16.548721,-1.201889
-1.278504,25.589228,8.944737
6.287173999999999,-13.311762,-4.13718
11.631032,4.3574470000000005,-1.642422
-3.682282,6.038176999999999,0.751779
0.426168,-9.983821,-2.796427
6.411672,27.897238,1.302446
-3.701436,17.784129999999998,-3.083732
0.871489,-8.599973,-2.260126
-0.80924,8.542512,7.762002000000001
8.604761,25.306711,-8.734048
8.39886,-16.462529999999997,3.864242
12.229582,23.908499,9.873688
-1.005565,17.27177,21.878216
3.979163,-3.011906,-3.150769
-11.927913,1.082179,2.96881
6.488287000000001,6.105214,-6.272808
18.83279,16.017210000000002,-11.018116
-8.169016000000001,-1.532289,2.614468
26.575640000000003,32.57072,4.936844000000001
3.5003230000000003,-2.590526,-4.965574
-3.691859,6.124368,-3.811569
2.298434,-8.676587,-2.327164
10.94629,28.031313,13.560759
-1.953669,15.342045,6.804322
5.492299,-11.956643,-16.510414
2.475605,6.871359,2.561796
-8.331821000000001,6.052542,-1.40779
6.742072,-16.548721,-1.201889
-1.278504,25.589228,8.944737
9.653421,25.905262,9.399636
6.172251999999999,-3.3854010000000003,-3.102885
12.909535,28.543673,0.354342
-0.11971,16.591818,-0.071826
4.644751,-16.098612,-2.715025
5.736508000000001,13.55597,7.354988
-8.006210000000001,5.315128,2.284068
7.886500999999999,-12.397177,1.120486
30.674513,24.890121,-4.079719
1.187524,13.072341,-1.953669
1.44131,-14.585477,3.610456
6.0286,17.889475,-0.732626
15.35641,25.665842,-2.499546
0.550666,-3.926491,0.895431
-3.246537,8.75799,-3.605668
-1.345541,5.391742,-1.359906
17.860744,-3.758896,-3.394978
18.689138,22.256498,-1.335964
-0.143652,8.240842,-0.7038949999999999
0.80924,-20.618866,-1.489193
15.629349,29.8126,2.30801
15.528792,30.004135,10.548853
-0.205901,-14.528016,-1.479617
14.54717,4.592079,4.553772
-8.231264999999999,4.299987000000001,1.968034
18.784906,-11.453861,1.766921
15.787366,15.883134,-1.628057
-2.202665,9.428367,-2.020706
1.915361,-19.531897,-0.71826
16.70674,25.890898,4.161122
8.676587,20.915747,-7.613561
3.701436,-9.892841,-2.590526
-3.682282,6.038176999999999,0.751779
0.426168,-9.983821,-2.796427
6.411672,27.897238,1.302446
-3.701436,17.784129999999998,-3.083732
0.871489,-8.599973,-2.260126
-0.80924,8.542512,7.762002000000001
8.604761,25.306711,-8.734048
8.39886,-16.462529999999997,3.864242
12.229582,23.908499,9.873688
-1.005565,17.27177,21.878216
3.979163,-3.011906,-3.150769
-11.927913,1.082179,2.96881
6.488287000000001,6.105214,-6.272808
18.83279,16.017210000000002,-11.018116
-8.169016000000001,-1.532289,2.614468
26.575640000000003,32.57072,4.936844000000001
3.5003230000000003,-2.590526,-4.965574
-3.691859,6.124368,-3.811569
2.298434,-8.676587,-2.327164
10.94629,28.031313,13.560759
-1.953669,15.342045,6.804322
5.492299,-11.956643,-16.510414
2.475605,6.871359,2.561796
-8.331821000000001,6.052542,-1.40779
6.742072,-16.548721,-1.201889
-1.278504,25.589228,8.944737
9.653421,25.905262,9.399636
6.172251999999999,-3.3854010000000003,-3.102885
0.512359,8.259996000000001,-0.301669
22.419304,11.247959,6.6894
6.411672,27.897238,1.302446
-3.701436,17.784129999999998,-3.083732
0.871489,-8.599973,-2.260126
-0.80924,8.542512,7.762002000000001
8.604761,25.306711,-8.734048
8.39886,-16.462529999999997,3.864242
12.229582,23.908499,9.873688
-1.005565,17.27177,21.878216
3.979163,-3.011906,-3.150769
-11.927913,1.082179,2.96881
6.488287000000001,6.105214,-6.272808
18.83279,16.017210000000002,-11.018116
-8.169016000000001,-1.532289,2.614468
26.575640000000003,32.57072,4.936844000000001
3.5003230000000003,-2.590526,-4.965574
-3.691859,6.124368,-3.811569
2.298434,-8.676587,-2.327164
10.94629,28.031313,13.560759
-1.953669,15.342045,6.804322
5.492299,-11.956643,-16.510414
2.475605,6.871359,2.561796
-8.331821000000001,6.052542,-1.40779
6.742072,-16.548721,-1.201889
-1.278504,25.589228,8.944737
9.653421,25.905262,9.399636
6.172251999999999,-3.3854010000000003,-3.102885
0.512359,8.259996000000001,-0.301669
22.419304,11.247959,6.6894
13.637373,20.72421,-2.863465
3.926491,6.852206,2.585738
0.871489,-8.599973,-2.260126
-0.80924,8.542512,7.762002000000001
8.604761,25.306711,-8.734048
8.39886,-16.462529999999997,3.864242
12.229582,23.908499,9.873688
-1.005565,17.27177,21.878216
3.979163,-3.011906,-3.150769
-11.927913,1.082179,2.96881
6.488287000000001,6.105214,-6.272808
18.83279,16.017210000000002,-11.018116
-8.169016000000001,-1.532289,2.614468
26.575640000000003,32.57072,4.936844000000001
3.5003230000000003,-2.590526,-4.965574
-3.691859,6.124368,-3.811569
2.298434,-8.676587,-2.327164
10.94629,28.031313,13.560759
-1.953669,15.342045,6.804322
5.492299,-11.956643,-16.510414
2.475605,6.871359,2.561796
-8.331821000000001,6.052542,-1.40779
6.742072,-16.548721,-1.201889
-1.278504,25.589228,8.944737
9.653421,25.905262,9.399636
6.172251999999999,-3.3854010000000003,-3.102885
0.512359,8.259996000000001,-0.301669
22.419304,11.247959,6.6894
13.637373,20.72421,-2.863465
3.926491,6.852206,2.585738
26.355371,32.858025,8.259996000000001
2.063802,-1.345541,-1.723825
8.604761,25.306711,-8.734048
8.39886,-16.462529999999997,3.864242
12.229582,23.908499,9.873688
-1.005565,17.27177,21.878216
3.979163,-3.011906,-3.150769
-11.927913,1.082179,2.96881
6.488287000000001,6.105214,-6.272808
18.83279,16.017210000000002,-11.018116
-8.169016000000001,-1.532289,2.614468
26.575640000000003,32.57072,4.936844000000001
3.5003230000000003,-2.590526,-4.965574
-3.691859,6.124368,-3.811569
2.298434,-8.676587,-2.327164
10.94629,28.031313,13.560759
-1.953669,15.342045,6.804322
5.492299,-11.956643,-16.510414
2.475605,6.871359,2.561796
-8.331821000000001,6.052542,-1.40779
6.742072,-16.548721,-1.201889
-1.278504,25.589228,8.944737
9.653421,25.905262,9.399636
6.172251999999999,-3.3854010000000003,-3.102885
0.512359,8.259996000000001,-0.301669
22.419304,11.247959,6.6894
13.637373,20.72421,-2.863465
3.926491,6.852206,2.585738
26.355371,32.858025,8.259996000000001
2.063802,-1.345541,-1.723825
-0.1292869999999999,5.329493,1.244985
14.432248,2.585738,-1.522712
12.229582,23.908499,9.873688
-1.005565,17.27177,21.878216
3.979163,-3.011906,-3.150769
-11.927913,1.082179,2.96881
6.488287000000001,6.105214,-6.272808
18.83279,16.017210000000002,-11.018116
-8.169016000000001,-1.532289,2.614468
26.575640000000003,32.57072,4.936844000000001
3.5003230000000003,-2.590526,-4.965574
-3.691859,6.124368,-3.811569
2.298434,-8.676587,-2.327164
10.94629,28.031313,13.560759
-1.953669,15.342045,6.804322
5.492299,-11.956643,-16.510414
2.475605,6.871359,2.561796
-8.331821000000001,6.052542,-1.40779
6.742072,-16.548721,-1.201889
-1.278504,25.589228,8.944737
9.653421,25.905262,9.399636
6.172251999999999,-3.3854010000000003,-3.102885
0.512359,8.259996000000001,-0.301669
22.419304,11.247959,6.6894
13.637373,20.72421,-2.863465
3.926491,6.852206,2.585738
26.355371,32.858025,8.259996000000001
2.063802,-1.345541,-1.723825
-0.1292869999999999,5.329493,1.244985
14.432248,2.585738,-1.522712
22.117636,18.420988,-3.993528
-6.746860000000001,8.39886,-4.232949
3.979163,-3.011906,-3.150769
-11.927913,1.082179,2.96881
6.488287000000001,6.105214,-6.272808
18.83279,16.017210000000002,-11.018116
-8.169016000000001,-1.532289,2.614468
26.575640000000003,32.57072,4.936844000000001
3.5003230000000003,-2.590526,-4.965574
-3.691859,6.124368,-3.811569
2.298434,-8.676587,-2.327164
10.94629,28.031313,13.560759
-1.953669,15.342045,6.804322
5.492299,-11.956643,-16.510414
2.475605,6.871359,2.561796
-8.331821000000001,6.052542,-1.40779
6.742072,-16.548721,-1.201889
-1.278504,25.589228,8.944737
9.653421,25.905262,9.399636
6.172251999999999,-3.3854010000000003,-3.102885
0.512359,8.259996000000001,-0.301669
22.419304,11.247959,6.6894
13.637373,20.72421,-2.863465
3.926491,6.852206,2.585738
26.355371,32.858025,8.259996000000001
2.063802,-1.345541,-1.723825
-0.1292869999999999,5.329493,1.244985
14.432248,2.585738,-1.522712
22.117636,18.420988,-3.993528
-6.746860000000001,8.39886,-4.232949
6.416461,-13.690045,-5.070919
0.675165,-1.900996,-2.806004
6.488287000000001,6.105214,-6.272808
18.83279,16.017210000000002,-11.018116
-8.169016000000001,-1.532289,2.614468
26.575640000000003,32.57072,4.936844000000001
3.5003230000000003,-2.590526,-4.965574
-3.691859,6.124368,-3.811569
2.298434,-8.676587,-2.327164
10.94629,28.031313,13.560759
-1.953669,15.342045,6.804322
5.492299,-11.956643,-16.510414
2.475605,6.871359,2.561796
-8.331821000000001,6.052542,-1.40779
6.742072,-16.548721,-1.201889
-1.278504,25.589228,8.944737
9.653421,25.905262,9.399636
6.172251999999999,-3.3854010000000003,-3.102885
0.512359,8.259996000000001,-0.301669
22.419304,11.247959,6.6894
13.637373,20.72421,-2.863465
3.926491,6.852206,2.585738
26.355371,32.858025,8.259996000000001
2.063802,-1.345541,-1.723825
-0.1292869999999999,5.329493,1.244985
14.432248,2.585738,-1.522712
22.117636,18.420988,-3.993528
-6.746860000000001,8.39886,-4.232949
6.416461,-13.690045,-5.070919
0.675165,-1.900996,-2.806004
-3.672705,9.045294,0.938527
13.354857,5.525818,-0.80924
-8.169016000000001,-1.532289,2.614468
26.575640000000003,32.57072,4.936844000000001
3.5003230000000003,-2.590526,-4.965574
-3.691859,6.124368,-3.811569
2.298434,-8.676587,-2.327164
10.94629,28.031313,13.560759
-1.953669,15.342045,6.804322
5.492299,-11.956643,-16.510414
2.475605,6.871359,2.561796
-8.331821000000001,6.052542,-1.40779
6.742072,-16.548721,-1.201889
-1.278504,25.589228,8.944737
9.653421,25.905262,9.399636
6.172251999999999,-3.3854010000000003,-3.102885
0.512359,8.259996000000001,-0.301669
22.419304,11.247959,6.6894
13.637373,20.72421,-2.863465
3.926491,6.852206,2.585738
26.355371,32.858025,8.259996000000001
2.063802,-1.345541,-1.723825
-0.1292869999999999,5.329493,1.244985
14.432248,2.585738,-1.522712
22.117636,18.420988,-3.993528
-6.746860000000001,8.39886,-4.232949
6.416461,-13.690045,-5.070919
0.675165,-1.900996,-2.806004
-3.672705,9.045294,0.938527
13.354857,5.525818,-0.80924
13.383588,22.826319,2.116475
-3.763685,6.105214,-0.5841850000000001
3.5003230000000003,-2.590526,-4.965574
-3.691859,6.124368,-3.811569
2.298434,-8.676587,-2.327164
10.94629,28.031313,13.560759
-1.953669,15.342045,6.804322
5.492299,-11.956643,-16.510414
2.475605,6.871359,2.561796
-8.331821000000001,6.052542,-1.40779
6.742072,-16.548721,-1.201889
-1.278504,25.589228,8.944737
9.653421,25.905262,9.399636
6.172251999999999,-3.3854010000000003,-3.102885
0.512359,8.259996000000001,-0.301669
22.419304,11.247959,6.6894
13.637373,20.72421,-2.863465
3.926491,6.852206,2.585738
26.355371,32.858025,8.259996000000001
2.063802,-1.345541,-1.723825
-0.1292869999999999,5.329493,1.244985
14.432248,2.585738,-1.522712
22.117636,18.420988,-3.993528
-6.746860000000001,8.39886,-4.232949
6.416461,-13.690045,-5.070919
0.675165,-1.900996,-2.806004
-3.672705,9.045294,0.938527
13.354857,5.525818,-0.80924
13.383588,22.826319,2.116475
-3.763685,6.105214,-0.5841850000000001
6.5792660000000005,-12.785037,-8.303091
8.48984,23.439234,11.372458
2.298434,-8.676587,-2.327164
10.94629,28.031313,13.560759
-1.953669,15.342045,6.804322
5.492299,-11.956643,-16.510414
2.475605,6.871359,2.561796
-8.331821000000001,6.052542,-1.40779
6.742072,-16.548721,-1.201889
-1.278504,25.589228,8.944737
9.653421,25.905262,9.399636
6.172251999999999,-3.3854010000000003,-3.102885
0.512359,8.259996000000001,-0.301669
22.419304,11.247959,6.6894
13.637373,20.72421,-2.863465
3.926491,6.852206,2.585738
26.355371,32.858025,8.259996000000001
2.063802,-1.345541,-1.723825
-0.1292869999999999,5.329493,1.244985
14.432248,2.585738,-1.522712
22.117636,18.420988,-3.993528
-6.746860000000001,8.39886,-4.232949
6.416461,-13.690045,-5.070919
0.675165,-1.900996,-2.806004
-3.672705,9.045294,0.938527
13.354857,5.525818,-0.80924
13.383588,22.826319,2.116475
-3.763685,6.105214,-0.5841850000000001
6.5792660000000005,-12.785037,-8.303091
8.48984,23.439234,11.372458
8.312667999999999,21.729774,7.809886
9.605537,7.857769999999999,-2.336741
4.644751,-16.098612,-2.715025
5.736508000000001,13.55597,7.354988
-8.006210000000001,5.315128,2.284068
7.886500999999999,-12.397177,1.120486
30.674513,24.890121,-4.079719
1.187524,13.072341,-1.953669
1.44131,-14.585477,3.610456
6.0286,17.889475,-0.732626
15.35641,25.665842,-2.499546
0.550666,-3.926491,0.895431
-3.246537,8.75799,-3.605668
-1.345541,5.391742,-1.359906
17.860744,-3.758896,-3.394978
18.689138,22.256498,-1.335964
-0.143652,8.240842,-0.7038949999999999
0.80924,-20.618866,-1.489193
15.629349,29.8126,2.30801
15.528792,30.004135,10.548853
-0.205901,-14.528016,-1.479617
14.54717,4.592079,4.553772
-8.231264999999999,4.299987000000001,1.968034
18.784906,-11.453861,1.766921
15.787366,15.883134,-1.628057
-2.202665,9.428367,-2.020706
1.915361,-19.531897,-0.71826
16.70674,25.890898,4.161122
8.676587,20.915747,-7.613561
3.701436,-9.892841,-2.590526
21.71541,12.157756,-1.565808
-2.173935,10.366894,7.70933
-1.953669,15.342045,6.804322
5.492299,-11.956643,-16.510414
2.475605,6.871359,2.561796
-8.331821000000001,6.052542,-1.40779
6.742072,-16.548721,-1.201889
-1.278504,25.589228,8.944737
9.653421,25.905262,9.399636
6.172251999999999,-3.3854010000000003,-3.102885
0.512359,8.259996000000001,-0.301669
22.419304,11.247959,6.6894
13.637373,20.72421,-2.863465
3.926491,6.852206,2.585738
26.355371,32.858025,8.259996000000001
2.063802,-1.345541,-1.723825
-0.1292869999999999,5.329493,1.244985
14.432248,2.585738,-1.522712
22.117636,18.420988,-3.993528
-6.746860000000001,8.39886,-4.232949
6.416461,-13.690045,-5.070919
0.675165,-1.900996,-2.806004
-3.672705,9.045294,0.938527
13.354857,5.525818,-0.80924
13.383588,22.826319,2.116475
-3.763685,6.105214,-0.5841850000000001
6.5792660000000005,-12.785037,-8.303091
8.48984,23.439234,11.372458
8.312667999999999,21.729774,7.809886
9.605537,7.857769999999999,-2.336741
16.859968,13.962984,-5.272032
-3.758896,12.933477,3.5625720000000003
2.475605,6.871359,2.561796
-8.331821000000001,6.052542,-1.40779
6.742072,-16.548721,-1.201889
-1.278504,25.589228,8.944737
9.653421,25.905262,9.399636
6.172251999999999,-3.3854010000000003,-3.102885
0.512359,8.259996000000001,-0.301669
22.419304,11.247959,6.6894
13.637373,20.72421,-2.863465
3.926491,6.852206,2.585738
26.355371,32.858025,8.259996000000001
2.063802,-1.345541,-1.723825
-0.1292869999999999,5.329493,1.244985
14.432248,2.585738,-1.522712
22.117636,18.420988,-3.993528
-6.746860000000001,8.39886,-4.232949
6.416461,-13.690045,-5.070919
0.675165,-1.900996,-2.806004
-3.672705,9.045294,0.938527
13.354857,5.525818,-0.80924
13.383588,22.826319,2.116475
-3.763685,6.105214,-0.5841850000000001
6.5792660000000005,-12.785037,-8.303091
8.48984,23.439234,11.372458
8.312667999999999,21.729774,7.809886
9.605537,7.857769999999999,-2.336741
16.859968,13.962984,-5.272032
-3.758896,12.933477,3.5625720000000003
3.5003230000000003,-9.179369,-6.904877000000001
5.042189,22.91251,7.0820490000000005
6.742072,-16.548721,-1.201889
-1.278504,25.589228,8.944737
9.653421,25.905262,9.399636
6.172251999999999,-3.3854010000000003,-3.102885
0.512359,8.259996000000001,-0.301669
22.419304,11.247959,6.6894
13.637373,20.72421,-2.863465
3.926491,6.852206,2.585738
26.355371,32.858025,8.259996000000001
2.063802,-1.345541,-1.723825
-0.1292869999999999,5.329493,1.244985
14.432248,2.585738,-1.522712
22.117636,18.420988,-3.993528
-6.746860000000001,8.39886,-4.232949
6.416461,-13.690045,-5.070919
0.675165,-1.900996,-2.806004
-3.672705,9.045294,0.938527
13.354857,5.525818,-0.80924
13.383588,22.826319,2.116475
-3.763685,6.105214,-0.5841850000000001
6.5792660000000005,-12.785037,-8.303091
8.48984,23.439234,11.372458
8.312667999999999,21.729774,7.809886
9.605537,7.857769999999999,-2.336741
16.859968,13.962984,-5.272032
-3.758896,12.933477,3.5625720000000003
3.5003230000000003,-9.179369,-6.904877000000001
5.042189,22.91251,7.0820490000000005
9.509769,18.526333,3.4189199999999995
5.856218,-6.813898,-6.71813
9.653421,25.905262,9.399636
6.172251999999999,-3.3854010000000003,-3.102885
0.512359,8.259996000000001,-0.301669
22.419304,11.247959,6.6894
13.637373,20.72421,-2.863465
3.926491,6.852206,2.585738
26.355371,32.858025,8.259996000000001
2.063802,-1.345541,-1.723825
-0.1292869999999999,5.329493,1.244985
14.432248,2.585738,-1.522712
22.117636,18.420988,-3.993528
-6.746860000000001,8.39886,-4.232949
6.416461,-13.690045,-5.070919
0.675165,-1.900996,-2.806004
-3.672705,9.045294,0.938527
13.354857,5.525818,-0.80924
13.383588,22.826319,2.116475
-3.763685,6.105214,-0.5841850000000001
6.5792660000000005,-12.785037,-8.303091
8.48984,23.439234,11.372458
8.312667999999999,21.729774,7.809886
9.605537,7.857769999999999,-2.336741
16.859968,13.962984,-5.272032
-3.758896,12.933477,3.5625720000000003
3.5003230000000003,-9.179369,-6.904877000000001
5.042189,22.91251,7.0820490000000005
9.509769,18.526333,3.4189199999999995
5.856218,-6.813898,-6.71813
-4.299986,6.636728,7.1395100000000005
-3.495534,10.223241,5.013458999999999
0.512359,8.259996000000001,-0.301669
22.419304,11.247959,6.6894
13.637373,20.72421,-2.863465
3.926491,6.852206,2.585738
26.355371,32.858025,8.259996000000001
2.063802,-1.345541,-1.723825
-0.1292869999999999,5.329493,1.244985
14.432248,2.585738,-1.522712
22.117636,18.420988,-3.993528
-6.746860000000001,8.39886,-4.232949
6.416461,-13.690045,-5.070919
0.675165,-1.900996,-2.806004
-3.672705,9.045294,0.938527
13.354857,5.525818,-0.80924
13.383588,22.826319,2.116475
-3.763685,6.105214,-0.5841850000000001
6.5792660000000005,-12.785037,-8.303091
8.48984,23.439234,11.372458
8.312667999999999,21.729774,7.809886
9.605537,7.857769999999999,-2.336741
16.859968,13.962984,-5.272032
-3.758896,12.933477,3.5625720000000003
3.5003230000000003,-9.179369,-6.904877000000001
5.042189,22.91251,7.0820490000000005
9.509769,18.526333,3.4189199999999995
5.856218,-6.813898,-6.71813
-4.299986,6.636728,7.1395100000000005
-3.495534,10.223241,5.013458999999999
6.426038,-11.200075,0.2489969999999999
6.162676,14.374787,3.945645
13.637373,20.72421,-2.863465
3.926491,6.852206,2.585738
26.355371,32.858025,8.259996000000001
2.063802,-1.345541,-1.723825
-0.1292869999999999,5.329493,1.244985
14.432248,2.585738,-1.522712
22.117636,18.420988,-3.993528
-6.746860000000001,8.39886,-4.232949
6.416461,-13.690045,-5.070919
0.675165,-1.900996,-2.806004
-3.672705,9.045294,0.938527
13.354857,5.525818,-0.80924
13.383588,22.826319,2.116475
-3.763685,6.105214,-0.5841850000000001
6.5792660000000005,-12.785037,-8.303091
8.48984,23.439234,11.372458
8.312667999999999,21.729774,7.809886
9.605537,7.857769999999999,-2.336741
16.859968,13.962984,-5.272032
-3.758896,12.933477,3.5625720000000003
3.5003230000000003,-9.179369,-6.904877000000001
5.042189,22.91251,7.0820490000000005
9.509769,18.526333,3.4189199999999995
5.856218,-6.813898,-6.71813
-4.299986,6.636728,7.1395100000000005
-3.495534,10.223241,5.013458999999999
6.426038,-11.200075,0.2489969999999999
6.162676,14.374787,3.945645
22.97476,37.18674,-1.4987700000000002
2.346318,-0.407014,-0.8283940000000001
26.355371,32.858025,8.259996000000001
2.063802,-1.345541,-1.723825
-0.1292869999999999,5.329493,1.244985
14.432248,2.585738,-1.522712
22.117636,18.420988,-3.993528
-6.746860000000001,8.39886,-4.232949
6.416461,-13.690045,-5.070919
0.675165,-1.900996,-2.806004
-3.672705,9.045294,0.938527
13.354857,5.525818,-0.80924
13.383588,22.826319,2.116475
-3.763685,6.105214,-0.5841850000000001
6.5792660000000005,-12.785037,-8.303091
8.48984,23.439234,11.372458
8.312667999999999,21.729774,7.809886
9.605537,7.857769999999999,-2.336741
16.859968,13.962984,-5.272032
-3.758896,12.933477,3.5625720000000003
3.5003230000000003,-9.179369,-6.904877000000001
5.042189,22.91251,7.0820490000000005
9.509769,18.526333,3.4189199999999995
5.856218,-6.813898,-6.71813
-4.299986,6.636728,7.1395100000000005
-3.495534,10.223241,5.013458999999999
6.426038,-11.200075,0.2489969999999999
6.162676,14.374787,3.945645
22.97476,37.18674,-1.4987700000000002
2.346318,-0.407014,-0.8283940000000001
-3.878607,4.845865,-4.118027
12.962208,0.8619129999999999,0.857124
-0.1292869999999999,5.329493,1.244985
14.432248,2.585738,-1.522712
22.117636,18.420988,-3.993528
-6.746860000000001,8.39886,-4.232949
6.416461,-13.690045,-5.070919
0.675165,-1.900996,-2.806004
-3.672705,9.045294,0.938527
13.354857,5.525818,-0.80924
13.383588,22.826319,2.116475
-3.763685,6.105214,-0.5841850000000001
6.5792660000000005,-12.785037,-8.303091
8.48984,23.439234,11.372458
8.312667999999999,21.729774,7.809886
9.605537,7.857769999999999,-2.336741
16.859968,13.962984,-5.272032
-3.758896,12.933477,3.5625720000000003
3.5003230000000003,-9.179369,-6.904877000000001
5.042189,22.91251,7.0820490000000005
9.509769,18.526333,3.4189199999999995
5.856218,-6.813898,-6.71813
-4.299986,6.636728,7.1395100000000005
-3.495534,10.223241,5.013458999999999
6.426038,-11.200075,0.2489969999999999
6.162676,14.374787,3.945645
22.97476,37.18674,-1.4987700000000002
2.346318,-0.407014,-0.8283940000000001
-3.878607,4.845865,-4.118027
12.962208,0.8619129999999999,0.857124
25.345018,14.882357999999998,35.596992
-5.324704,5.525818,-1.163582
22.117636,18.420988,-3.993528
-6.746860000000001,8.39886,-4.232949
6.416461,-13.690045,-5.070919
0.675165,-1.900996,-2.806004
-3.672705,9.045294,0.938527
13.354857,5.525818,-0.80924
13.383588,22.826319,2.116475
-3.763685,6.105214,-0.5841850000000001
6.5792660000000005,-12.785037,-8.303091
8.48984,23.439234,11.372458
8.312667999999999,21.729774,7.809886
9.605537,7.857769999999999,-2.336741
16.859968,13.962984,-5.272032
-3.758896,12.933477,3.5625720000000003
3.5003230000000003,-9.179369,-6.904877000000001
5.042189,22.91251,7.0820490000000005
9.509769,18.526333,3.4189199999999995
5.856218,-6.813898,-6.71813
-4.299986,6.636728,7.1395100000000005
-3.495534,10.223241,5.013458999999999
6.426038,-11.200075,0.2489969999999999
6.162676,14.374787,3.945645
22.97476,37.18674,-1.4987700000000002
2.346318,-0.407014,-0.8283940000000001
-3.878607,4.845865,-4.118027
12.962208,0.8619129999999999,0.857124
25.345018,14.882357999999998,35.596992
-5.324704,5.525818,-1.163582
4.237737,4.821923,-6.943185000000001
13.206416,11.425131,12.057199
6.416461,-13.690045,-5.070919
0.675165,-1.900996,-2.806004
-3.672705,9.045294,0.938527
13.354857,5.525818,-0.80924
13.383588,22.826319,2.116475
-3.763685,6.105214,-0.5841850000000001
6.5792660000000005,-12.785037,-8.303091
8.48984,23.439234,11.372458
8.312667999999999,21.729774,7.809886
9.605537,7.857769999999999,-2.336741
16.859968,13.962984,-5.272032
-3.758896,12.933477,3.5625720000000003
3.5003230000000003,-9.179369,-6.904877000000001
5.042189,22.91251,7.0820490000000005
9.509769,18.526333,3.4189199999999995
5.856218,-6.813898,-6.71813
-4.299986,6.636728,7.1395100000000005
-3.495534,10.223241,5.013458999999999
6.426038,-11.200075,0.2489969999999999
6.162676,14.374787,3.945645
22.97476,37.18674,-1.4987700000000002
2.346318,-0.407014,-0.8283940000000001
-3.878607,4.845865,-4.118027
12.962208,0.8619129999999999,0.857124
25.345018,14.882357999999998,35.596992
-5.324704,5.525818,-1.163582
4.237737,4.821923,-6.943185000000001
13.206416,11.425131,12.057199
-6.062118,6.679823,-3.045424
10.352529,-11.228806,-3.912125
-8.006210000000001,5.315128,2.284068
7.886500999999999,-12.397177,1.120486
30.674513,24.890121,-4.079719
1.187524,13.072341,-1.953669
1.44131,-14.585477,3.610456
6.0286,17.889475,-0.732626
15.35641,25.665842,-2.499546
0.550666,-3.926491,0.895431
-3.246537,8.75799,-3.605668
-1.345541,5.391742,-1.359906
17.860744,-3.758896,-3.394978
18.689138,22.256498,-1.335964
-0.143652,8.240842,-0.7038949999999999
0.80924,-20.618866,-1.489193
15.629349,29.8126,2.30801
15.528792,30.004135,10.548853
-0.205901,-14.528016,-1.479617
14.54717,4.592079,4.553772
-8.231264999999999,4.299987000000001,1.968034
18.784906,-11.453861,1.766921
15.787366,15.883134,-1.628057
-2.202665,9.428367,-2.020706
1.915361,-19.531897,-0.71826
16.70674,25.890898,4.161122
8.676587,20.915747,-7.613561
3.701436,-9.892841,-2.590526
21.71541,12.157756,-1.565808
-2.173935,10.366894,7.70933
0.167594,-16.788142999999998,0.675165
11.803414,25.081657,5.525818
-3.672705,9.045294,0.938527
13.354857,5.525818,-0.80924
13.383588,22.826319,2.116475
-3.763685,6.105214,-0.5841850000000001
6.5792660000000005,-12.785037,-8.303091
8.48984,23.439234,11.372458
8.312667999999999,21.729774,7.809886
9.605537,7.857769999999999,-2.336741
16.859968,13.962984,-5.272032
-3.758896,12.933477,3.5625720000000003
3.5003230000000003,-9.179369,-6.904877000000001
5.042189,22.91251,7.0820490000000005
9.509769,18.526333,3.4189199999999995
5.856218,-6.813898,-6.71813
-4.299986,6.636728,7.1395100000000005
-3.495534,10.223241,5.013458999999999
6.426038,-11.200075,0.2489969999999999
6.162676,14.374787,3.945645
22.97476,37.18674,-1.4987700000000002
2.346318,-0.407014,-0.8283940000000001
-3.878607,4.845865,-4.118027
12.962208,0.8619129999999999,0.857124
25.345018,14.882357999999998,35.596992
-5.324704,5.525818,-1.163582
4.237737,4.821923,-6.943185000000001
13.206416,11.425131,12.057199
-6.062118,6.679823,-3.045424
10.352529,-11.228806,-3.912125
6.435614,21.188684,9.294291
5.286398,19.82399,10.486604
13.383588,22.826319,2.116475
-3.763685,6.105214,-0.5841850000000001
6.5792660000000005,-12.785037,-8.303091
8.48984,23.439234,11.372458
8.312667999999999,21.729774,7.809886
9.605537,7.857769999999999,-2.336741
16.859968,13.962984,-5.272032
-3.758896,12.933477,3.5625720000000003
3.5003230000000003,-9.179369,-6.904877000000001
5.042189,22.91251,7.0820490000000005
9.509769,18.526333,3.4189199999999995
5.856218,-6.813898,-6.71813
-4.299986,6.636728,7.1395100000000005
-3.495534,10.223241,5.013458999999999
6.426038,-11.200075,0.2489969999999999
6.162676,14.374787,3.945645
22.97476,37.18674,-1.4987700000000002
2.346318,-0.407014,-0.8283940000000001
-3.878607,4.845865,-4.118027
12.962208,0.8619129999999999,0.857124
25.345018,14.882357999999998,35.596992
-5.324704,5.525818,-1.163582
4.237737,4.821923,-6.943185000000001
13.206416,11.425131,12.057199
-6.062118,6.679823,-3.045424
10.352529,-11.228806,-3.912125
6.435614,21.188684,9.294291
5.286398,19.82399,10.486604
3.691859,-8.839393,-4.941632
32.111034000000004,22.989124,14.930242000000002
6.5792660000000005,-12.785037,-8.303091
8.48984,23.439234,11.372458
8.312667999999999,21.729774,7.809886
9.605537,7.857769999999999,-2.336741
16.859968,13.962984,-5.272032
-3.758896,12.933477,3.5625720000000003
3.5003230000000003,-9.179369,-6.904877000000001
5.042189,22.91251,7.0820490000000005
9.509769,18.526333,3.4189199999999995
5.856218,-6.813898,-6.71813
-4.299986,6.636728,7.1395100000000005
-3.495534,10.223241,5.013458999999999
6.426038,-11.200075,0.2489969999999999
6.162676,14.374787,3.945645
22.97476,37.18674,-1.4987700000000002
2.346318,-0.407014,-0.8283940000000001
-3.878607,4.845865,-4.118027
12.962208,0.8619129999999999,0.857124
25.345018,14.882357999999998,35.596992
-5.324704,5.525818,-1.163582
4.237737,4.821923,-6.943185000000001
13.206416,11.425131,12.057199
-6.062118,6.679823,-3.045424
10.352529,-11.228806,-3.912125
6.435614,21.188684,9.294291
5.286398,19.82399,10.486604
3.691859,-8.839393,-4.941632
32.111034000000004,22.989124,14.930242000000002
-5.252878,8.437167,-4.252102
-4.290409,-13.939042,-14.413095000000002
8.312667999999999,21.729774,7.809886
9.605537,7.857769999999999,-2.336741
16.859968,13.962984,-5.272032
-3.758896,12.933477,3.5625720000000003
3.5003230000000003,-9.179369,-6.904877000000001
5.042189,22.91251,7.0820490000000005
9.509769,18.526333,3.4189199999999995
5.856218,-6.813898,-6.71813
-4.299986,6.636728,7.1395100000000005
-3.495534,10.223241,5.013458999999999
6.426038,-11.200075,0.2489969999999999
6.162676,14.374787,3.945645
22.97476,37.18674,-1.4987700000000002
2.346318,-0.407014,-0.8283940000000001
-3.878607,4.845865,-4.118027
12.962208,0.8619129999999999,0.857124
25.345018,14.882357999999998,35.596992
-5.324704,5.525818,-1.163582
4.237737,4.821923,-6.943185000000001
13.206416,11.425131,12.057199
-6.062118,6.679823,-3.045424
10.352529,-11.228806,-3.912125
6.435614,21.188684,9.294291
5.286398,19.82399,10.486604
3.691859,-8.839393,-4.941632
32.111034000000004,22.989124,14.930242000000002
-5.252878,8.437167,-4.252102
-4.290409,-13.939042,-14.413095000000002
5.0374,23.554157,22.467188
-3.280056,14.231135,19.230228
16.859968,13.962984,-5.272032
-3.758896,12.933477,3.5625720000000003
3.5003230000000003,-9.179369,-6.904877000000001
5.042189,22.91251,7.0820490000000005
9.509769,18.526333,3.4189199999999995
5.856218,-6.813898,-6.71813
-4.299986,6.636728,7.1395100000000005
-3.495534,10.223241,5.013458999999999
6.426038,-11.200075,0.2489969999999999
6.162676,14.374787,3.945645
22.97476,37.18674,-1.4987700000000002
2.346318,-0.407014,-0.8283940000000001
-3.878607,4.845865,-4.118027
12.962208,0.8619129999999999,0.857124
25.345018,14.882357999999998,35.596992
-5.324704,5.525818,-1.163582
4.237737,4.821923,-6.943185000000001
13.206416,11.425131,12.057199
-6.062118,6.679823,-3.045424
10.352529,-11.228806,-3.912125
6.435614,21.188684,9.294291
5.286398,19.82399,10.486604
3.691859,-8.839393,-4.941632
32.111034000000004,22.989124,14.930242000000002
-5.252878,8.437167,-4.252102
-4.290409,-13.939042,-14.413095000000002
5.0374,23.554157,22.467188
-3.280056,14.231135,19.230228
3.663129,-11.429919,-0.679953
-4.821922,6.914455,6.78038
3.5003230000000003,-9.179369,-6.904877000000001
5.042189,22.91251,7.0820490000000005
9.509769,18.526333,3.4189199999999995
5.856218,-6.813898,-6.71813
-4.299986,6.636728,7.1395100000000005
-3.495534,10.223241,5.013458999999999
6.426038,-11.200075,0.2489969999999999
6.162676,14.374787,3.945645
22.97476,37.18674,-1.4987700000000002
2.346318,-0.407014,-0.8283940000000001
-3.878607,4.845865,-4.118027
12.962208,0.8619129999999999,0.857124
25.345018,14.882357999999998,35.596992
-5.324704,5.525818,-1.163582
4.237737,4.821923,-6.943185000000001
13.206416,11.425131,12.057199
-6.062118,6.679823,-3.045424
10.352529,-11.228806,-3.912125
6.435614,21.188684,9.294291
5.286398,19.82399,10.486604
3.691859,-8.839393,-4.941632
32.111034000000004,22.989124,14.930242000000002
-5.252878,8.437167,-4.252102
-4.290409,-13.939042,-14.413095000000002
5.0374,23.554157,22.467188
-3.280056,14.231135,19.230228
3.663129,-11.429919,-0.679953
-4.821922,6.914455,6.78038
9.911995,15.246277,21.150377
17.089810999999997,6.880936,6.009446
9.509769,18.526333,3.4189199999999995
5.856218,-6.813898,-6.71813
-4.299986,6.636728,7.1395100000000005
-3.495534,10.223241,5.013458999999999
6.426038,-11.200075,0.2489969999999999
6.162676,14.374787,3.945645
22.97476,37.18674,-1.4987700000000002
2.346318,-0.407014,-0.8283940000000001
-3.878607,4.845865,-4.118027
12.962208,0.8619129999999999,0.857124
25.345018,14.882357999999998,35.596992
-5.324704,5.525818,-1.163582
4.237737,4.821923,-6.943185000000001
13.206416,11.425131,12.057199
-6.062118,6.679823,-3.045424
10.352529,-11.228806,-3.912125
6.435614,21.188684,9.294291
5.286398,19.82399,10.486604
3.691859,-8.839393,-4.941632
32.111034000000004,22.989124,14.930242000000002
-5.252878,8.437167,-4.252102
-4.290409,-13.939042,-14.413095000000002
5.0374,23.554157,22.467188
-3.280056,14.231135,19.230228
3.663129,-11.429919,-0.679953
-4.821922,6.914455,6.78038
9.911995,15.246277,21.150377
17.089810999999997,6.880936,6.009446
-3.754108,7.407660000000001,19.55105
-16.055517000000002,9.165004,3.011906
-4.299986,6.636728,7.1395100000000005
-3.495534,10.223241,5.013458999999999
6.426038,-11.200075,0.2489969999999999
6.162676,14.374787,3.945645
22.97476,37.18674,-1.4987700000000002
2.346318,-0.407014,-0.8283940000000001
-3.878607,4.845865,-4.118027
12.962208,0.8619129999999999,0.857124
25.345018,14.882357999999998,35.596992
-5.324704,5.525818,-1.163582
4.237737,4.821923,-6.943185000000001
13.206416,11.425131,12.057199
-6.062118,6.679823,-3.045424
10.352529,-11.228806,-3.912125
6.435614,21.188684,9.294291
5.286398,19.82399,10.486604
3.691859,-8.839393,-4.941632
32.111034000000004,22.989124,14.930242000000002
-5.252878,8.437167,-4.252102
-4.290409,-13.939042,-14.413095000000002
5.0374,23.554157,22.467188
-3.280056,14.231135,19.230228
3.663129,-11.429919,-0.679953
-4.821922,6.914455,6.78038
9.911995,15.246277,21.150377
17.089810999999997,6.880936,6.009446
-3.754108,7.407660000000001,19.55105
-16.055517000000002,9.165004,3.011906
5.956774,-0.114922,-2.39899
-3.08852,10.012551,6.244078
6.426038,-11.200075,0.2489969999999999
6.162676,14.374787,3.945645
22.97476,37.18674,-1.4987700000000002
2.346318,-0.407014,-0.8283940000000001
-3.878607,4.845865,-4.118027
12.962208,0.8619129999999999,0.857124
25.345018,14.882357999999998,35.596992
-5.324704,5.525818,-1.163582
4.237737,4.821923,-6.943185000000001
13.206416,11.425131,12.057199
-6.062118,6.679823,-3.045424
10.352529,-11.228806,-3.912125
6.435614,21.188684,9.294291
5.286398,19.82399,10.486604
3.691859,-8.839393,-4.941632
32.111034000000004,22.989124,14.930242000000002
-5.252878,8.437167,-4.252102
-4.290409,-13.939042,-14.413095000000002
5.0374,23.554157,22.467188
-3.280056,14.231135,19.230228
3.663129,-11.429919,-0.679953
-4.821922,6.914455,6.78038
9.911995,15.246277,21.150377
17.089810999999997,6.880936,6.009446
-3.754108,7.407660000000001,19.55105
-16.055517000000002,9.165004,3.011906
5.956774,-0.114922,-2.39899
-3.08852,10.012551,6.244078
2.260126,9.23683,-6.277597
13.656527,6.670246000000001,1.642422
22.97476,37.18674,-1.4987700000000002
2.346318,-0.407014,-0.8283940000000001
-3.878607,4.845865,-4.118027
12.962208,0.8619129999999999,0.857124
25.345018,14.882357999999998,35.596992
-5.324704,5.525818,-1.163582
4.237737,4.821923,-6.943185000000001
13.206416,11.425131,12.057199
-6.062118,6.679823,-3.045424
10.352529,-11.228806,-3.912125
6.435614,21.188684,9.294291
5.286398,19.82399,10.486604
3.691859,-8.839393,-4.941632
32.111034000000004,22.989124,14.930242000000002
-5.252878,8.437167,-4.252102
-4.290409,-13.939042,-14.413095000000002
5.0374,23.554157,22.467188
-3.280056,14.231135,19.230228
3.663129,-11.429919,-0.679953
-4.821922,6.914455,6.78038
9.911995,15.246277,21.150377
17.089810999999997,6.880936,6.009446
-3.754108,7.407660000000001,19.55105
-16.055517000000002,9.165004,3.011906
5.956774,-0.114922,-2.39899
-3.08852,10.012551,6.244078
2.260126,9.23683,-6.277597
13.656527,6.670246000000001,1.642422
-3.270479,9.208099,-2.753332
4.630386,-11.204864,-0.536301
30.674513,24.890121,-4.079719
1.187524,13.072341,-1.953669
1.44131,-14.585477,3.610456
6.0286,17.889475,-0.732626
15.35641,25.665842,-2.499546
0.550666,-3.926491,0.895431
-3.246537,8.75799,-3.605668
-1.345541,5.391742,-1.359906
17.860744,-3.758896,-3.394978
18.689138,22.256498,-1.335964
-0.143652,8.240842,-0.7038949999999999
0.80924,-20.618866,-1.489193
15.629349,29.8126,2.30801
15.528792,30.004135,10.548853
-0.205901,-14.528016,-1.479617
14.54717,4.592079,4.553772
-8.231264999999999,4.299987000000001,1.968034
18.784906,-11.453861,1.766921
15.787366,15.883134,-1.628057
-2.202665,9.428367,-2.020706
1.915361,-19.531897,-0.71826
16.70674,25.890898,4.161122
8.676587,20.915747,-7.613561
3.701436,-9.892841,-2.590526
21.71541,12.157756,-1.565808
-2.173935,10.366894,7.70933
0.167594,-16.788142999999998,0.675165
11.803414,25.081657,5.525818
0.670377,15.016433,3.026271
1.25935,-14.78659,-3.155558
-3.878607,4.845865,-4.118027
12.962208,0.8619129999999999,0.857124
25.345018,14.882357999999998,35.596992
-5.324704,5.525818,-1.163582
4.237737,4.821923,-6.943185000000001
13.206416,11.425131,12.057199
-6.062118,6.679823,-3.045424
10.352529,-11.228806,-3.912125
6.435614,21.188684,9.294291
5.286398,19.82399,10.486604
3.691859,-8.839393,-4.941632
32.111034000000004,22.989124,14.930242000000002
-5.252878,8.437167,-4.252102
-4.290409,-13.939042,-14.413095000000002
5.0374,23.554157,22.467188
-3.280056,14.231135,19.230228
3.663129,-11.429919,-0.679953
-4.821922,6.914455,6.78038
9.911995,15.246277,21.150377
17.089810999999997,6.880936,6.009446
-3.754108,7.407660000000001,19.55105
-16.055517000000002,9.165004,3.011906
5.956774,-0.114922,-2.39899
-3.08852,10.012551,6.244078
2.260126,9.23683,-6.277597
13.656527,6.670246000000001,1.642422
-3.270479,9.208099,-2.753332
4.630386,-11.204864,-0.536301
16.338032000000002,29.640217,25.19179
-4.041412,5.870583,6.540959
25.345018,14.882357999999998,35.596992
-5.324704,5.525818,-1.163582
4.237737,4.821923,-6.943185000000001
13.206416,11.425131,12.057199
-6.062118,6.679823,-3.045424
10.352529,-11.228806,-3.912125
6.435614,21.188684,9.294291
5.286398,19.82399,10.486604
3.691859,-8.839393,-4.941632
32.111034000000004,22.989124,14.930242000000002
-5.252878,8.437167,-4.252102
-4.290409,-13.939042,-14.413095000000002
5.0374,23.554157,22.467188
-3.280056,14.231135,19.230228
3.663129,-11.429919,-0.679953
-4.821922,6.914455,6.78038
9.911995,15.246277,21.150377
17.089810999999997,6.880936,6.009446
-3.754108,7.407660000000001,19.55105
-16.055517000000002,9.165004,3.011906
5.956774,-0.114922,-2.39899
-3.08852,10.012551,6.244078
2.260126,9.23683,-6.277597
13.656527,6.670246000000001,1.642422
-3.270479,9.208099,-2.753332
4.630386,-11.204864,-0.536301
16.338032000000002,29.640217,25.19179
-4.041412,5.870583,6.540959
18.004396,25.546135,4.984728
1.886631,10.577583,10.247183
4.237737,4.821923,-6.943185000000001
13.206416,11.425131,12.057199
-6.062118,6.679823,-3.045424
10.352529,-11.228806,-3.912125
6.435614,21.188684,9.294291
5.286398,19.82399,10.486604
3.691859,-8.839393,-4.941632
32.111034000000004,22.989124,14.930242000000002
-5.252878,8.437167,-4.252102
-4.290409,-13.939042,-14.413095000000002
5.0374,23.554157,22.467188
-3.280056,14.231135,19.230228
3.663129,-11.429919,-0.679953
-4.821922,6.914455,6.78038
9.911995,15.246277,21.150377
17.089810999999997,6.880936,6.009446
-3.754108,7.407660000000001,19.55105
-16.055517000000002,9.165004,3.011906
5.956774,-0.114922,-2.39899
-3.08852,10.012551,6.244078
2.260126,9.23683,-6.277597
13.656527,6.670246000000001,1.642422
-3.270479,9.208099,-2.753332
4.630386,-11.204864,-0.536301
16.338032000000002,29.640217,25.19179
-4.041412,5.870583,6.540959
18.004396,25.546135,4.984728
1.886631,10.577583,10.247183
-1.632845,6.833052,-3.773262
0.325611,-12.009315,-4.204218
-6.062118,6.679823,-3.045424
10.352529,-11.228806,-3.912125
6.435614,21.188684,9.294291
5.286398,19.82399,10.486604
3.691859,-8.839393,-4.941632
32.111034000000004,22.989124,14.930242000000002
-5.252878,8.437167,-4.252102
-4.290409,-13.939042,-14.413095000000002
5.0374,23.554157,22.467188
-3.280056,14.231135,19.230228
3.663129,-11.429919,-0.679953
-4.821922,6.914455,6.78038
9.911995,15.246277,21.150377
17.089810999999997,6.880936,6.009446
-3.754108,7.407660000000001,19.55105
-16.055517000000002,9.165004,3.011906
5.956774,-0.114922,-2.39899
-3.08852,10.012551,6.244078
2.260126,9.23683,-6.277597
13.656527,6.670246000000001,1.642422
-3.270479,9.208099,-2.753332
4.630386,-11.204864,-0.536301
16.338032000000002,29.640217,25.19179
-4.041412,5.870583,6.540959
18.004396,25.546135,4.984728
1.886631,10.577583,10.247183
-1.632845,6.833052,-3.773262
0.325611,-12.009315,-4.204218
4.29041,23.008278,14.188039000000002
-3.222595,21.073763,13.757082999999998
6.435614,21.188684,9.294291
5.286398,19.82399,10.486604
3.691859,-8.839393,-4.941632
32.111034000000004,22.989124,14.930242000000002
-5.252878,8.437167,-4.252102
-4.290409,-13.939042,-14.413095000000002
5.0374,23.554157,22.467188
-3.280056,14.231135,19.230228
3.663129,-11.429919,-0.679953
-4.821922,6.914455,6.78038
9.911995,15.246277,21.150377
17.089810999999997,6.880936,6.009446
-3.754108,7.407660000000001,19.55105
-16.055517000000002,9.165004,3.011906
5.956774,-0.114922,-2.39899
-3.08852,10.012551,6.244078
2.260126,9.23683,-6.277597
13.656527,6.670246000000001,1.642422
-3.270479,9.208099,-2.753332
4.630386,-11.204864,-0.536301
16.338032000000002,29.640217,25.19179
-4.041412,5.870583,6.540959
18.004396,25.546135,4.984728
1.886631,10.577583,10.247183
-1.632845,6.833052,-3.773262
0.325611,-12.009315,-4.204218
4.29041,23.008278,14.188039000000002
-3.222595,21.073763,13.757082999999998
6.258444,-6.220136,-3.936067
-3.610456,12.282255,10.591949
3.691859,-8.839393,-4.941632
32.111034000000004,22.989124,14.930242000000002
-5.252878,8.437167,-4.252102
-4.290409,-13.939042,-14.413095000000002
5.0374,23.554157,22.467188
-3.280056,14.231135,19.230228
3.663129,-11.429919,-0.679953
-4.821922,6.914455,6.78038
9.911995,15.246277,21.150377
17.089810999999997,6.880936,6.009446
-3.754108,7.407660000000001,19.55105
-16.055517000000002,9.165004,3.011906
5.956774,-0.114922,-2.39899
-3.08852,10.012551,6.244078
2.260126,9.23683,-6.277597
13.656527,6.670246000000001,1.642422
-3.270479,9.208099,-2.753332
4.630386,-11.204864,-0.536301
16.338032000000002,29.640217,25.19179
-4.041412,5.870583,6.540959
18.004396,25.546135,4.984728
1.886631,10.577583,10.247183
-1.632845,6.833052,-3.773262
0.325611,-12.009315,-4.204218
4.29041,23.008278,14.188039000000002
-3.222595,21.073763,13.757082999999998
6.258444,-6.220136,-3.936067
-3.610456,12.282255,10.591949
2.331953,15.543157999999998,1.958457
10.012551,-13.824121,-2.585738
-5.252878,8.437167,-4.252102
-4.290409,-13.939042,-14.413095000000002
5.0374,23.554157,22.467188
-3.280056,14.231135,19.230228
3.663129,-11.429919,-0.679953
-4.821922,6.914455,6.78038
9.911995,15.246277,21.150377
17.089810999999997,6.880936,6.009446
-3.754108,7.407660000000001,19.55105
-16.055517000000002,9.165004,3.011906
5.956774,-0.114922,-2.39899
-3.08852,10.012551,6.244078
2.260126,9.23683,-6.277597
13.656527,6.670246000000001,1.642422
-3.270479,9.208099,-2.753332
4.630386,-11.204864,-0.536301
16.338032000000002,29.640217,25.19179
-4.041412,5.870583,6.540959
18.004396,25.546135,4.984728
1.886631,10.577583,10.247183
-1.632845,6.833052,-3.773262
0.325611,-12.009315,-4.204218
4.29041,23.008278,14.188039000000002
-3.222595,21.073763,13.757082999999998
6.258444,-6.220136,-3.936067
-3.610456,12.282255,10.591949
2.331953,15.543157999999998,1.958457
10.012551,-13.824121,-2.585738
2.298434,9.768343,7.771578999999999
34.830845000000004,30.588322,20.231005
5.0374,23.554157,22.467188
-3.280056,14.231135,19.230228
3.663129,-11.429919,-0.679953
-4.821922,6.914455,6.78038
9.911995,15.246277,21.150377
17.089810999999997,6.880936,6.009446
-3.754108,7.407660000000001,19.55105
-16.055517000000002,9.165004,3.011906
5.956774,-0.114922,-2.39899
-3.08852,10.012551,6.244078
2.260126,9.23683,-6.277597
13.656527,6.670246000000001,1.642422
-3.270479,9.208099,-2.753332
4.630386,-11.204864,-0.536301
16.338032000000002,29.640217,25.19179
-4.041412,5.870583,6.540959
18.004396,25.546135,4.984728
1.886631,10.577583,10.247183
-1.632845,6.833052,-3.773262
0.325611,-12.009315,-4.204218
4.29041,23.008278,14.188039000000002
-3.222595,21.073763,13.757082999999998
6.258444,-6.220136,-3.936067
-3.610456,12.282255,10.591949
2.331953,15.543157999999998,1.958457
10.012551,-13.824121,-2.585738
2.298434,9.768343,7.771578999999999
34.830845000000004,30.588322,20.231005
5.243302,0.201113,-5.765238
-3.394978,4.716578,-2.097321
3.663129,-11.429919,-0.679953
-4.821922,6.914455,6.78038
9.911995,15.246277,21.150377
17.089810999999997,6.880936,6.009446
-3.754108,7.407660000000001,19.55105
-16.055517000000002,9.165004,3.011906
5.956774,-0.114922,-2.39899
-3.08852,10.012551,6.244078
2.260126,9.23683,-6.277597
13.656527,6.670246000000001,1.642422
-3.270479,9.208099,-2.753332
4.630386,-11.204864,-0.536301
16.338032000000002,29.640217,25.19179
-4.041412,5.870583,6.540959
18.004396,25.546135,4.984728
1.886631,10.577583,10.247183
-1.632845,6.833052,-3.773262
0.325611,-12.009315,-4.204218
4.29041,23.008278,14.188039000000002
-3.222595,21.073763,13.757082999999998
6.258444,-6.220136,-3.936067
-3.610456,12.282255,10.591949
2.331953,15.543157999999998,1.958457
10.012551,-13.824121,-2.585738
2.298434,9.768343,7.771578999999999
34.830845000000004,30.588322,20.231005
5.243302,0.201113,-5.765238
-3.394978,4.716578,-2.097321
-1.991976,-8.853758000000001,-10.505757
-2.255338,20.786457,36.521152
9.911995,15.246277,21.150377
17.089810999999997,6.880936,6.009446
-3.754108,7.407660000000001,19.55105
-16.055517000000002,9.165004,3.011906
5.956774,-0.114922,-2.39899
-3.08852,10.012551,6.244078
2.260126,9.23683,-6.277597
13.656527,6.670246000000001,1.642422
-3.270479,9.208099,-2.753332
4.630386,-11.204864,-0.536301
16.338032000000002,29.640217,25.19179
-4.041412,5.870583,6.540959
18.004396,25.546135,4.984728
1.886631,10.577583,10.247183
-1.632845,6.833052,-3.773262
0.325611,-12.009315,-4.204218
4.29041,23.008278,14.188039000000002
-3.222595,21.073763,13.757082999999998
6.258444,-6.220136,-3.936067
-3.610456,12.282255,10.591949
2.331953,15.543157999999998,1.958457
10.012551,-13.824121,-2.585738
2.298434,9.768343,7.771578999999999
34.830845000000004,30.588322,20.231005
5.243302,0.201113,-5.765238
-3.394978,4.716578,-2.097321
-1.991976,-8.853758000000001,-10.505757
-2.255338,20.786457,36.521152
-2.011129,5.702989,-2.39899
-4.395754,-5.880159,13.64695
1.733402,7.268797,2.662352
22.141577,17.166426,7.1969710000000005
2.75812,-0.138864,4.644751
-2.566584,4.582502,11.377247
22.720974,5.401319,2.413355
21.86385,12.014104,8.130709
-3.2321720000000003,7.479486,2.116475
-1.819593,-16.778566,-3.552995
4.161122,18.50239,9.562442
-0.2585739999999999,9.414001,3.96001
12.483368,13.421895,3.318364
10.405201,8.322245,1.3982139999999998
-7.220911999999999,8.010999,0.052672
25.914839,0.799663,8.872911
23.860615,14.264654,6.952762
0.622492,10.635044,-6.234501
-10.994174,-20.269312,-2.145205
5.78918,12.411542,4.616021
-3.126827,5.659893,2.384625
17.262194,-0.6991069999999999,-3.586514
22.031445,18.406622,1.5370780000000002
3.60088,12.368446,2.217031
-0.354342,-13.206416,-7.254430999999999
8.245631,21.691467000000003,7.599196000000001
18.641254,21.638796,5.31034
4.381389,-6.0764830000000005,-3.620033
26.499025,26.015396,11.324574
4.003105000000001,13.723564,-0.924162
3.284845,-16.749836,-2.643199
2.231396,8.90643,5.319916
1.44131,-14.585477,3.610456
6.0286,17.889475,-0.732626
15.35641,25.665842,-2.499546
0.550666,-3.926491,0.895431
-3.246537,8.75799,-3.605668
-1.345541,5.391742,-1.359906
17.860744,-3.758896,-3.394978
18.689138,22.256498,-1.335964
-0.143652,8.240842,-0.7038949999999999
0.80924,-20.618866,-1.489193
15.629349,29.8126,2.30801
15.528792,30.004135,10.548853
-0.205901,-14.528016,-1.479617
14.54717,4.592079,4.553772
-8.231264999999999,4.299987000000001,1.968034
18.784906,-11.453861,1.766921
15.787366,15.883134,-1.628057
-2.202665,9.428367,-2.020706
1.915361,-19.531897,-0.71826
16.70674,25.890898,4.161122
8.676587,20.915747,-7.613561
3.701436,-9.892841,-2.590526
21.71541,12.157756,-1.565808
-2.173935,10.366894,7.70933
0.167594,-16.788142999999998,0.675165
11.803414,25.081657,5.525818
0.670377,15.016433,3.026271
1.25935,-14.78659,-3.155558
7.125145,14.135366,8.480263
23.597252,29.257145,5.238514
-3.754108,7.407660000000001,19.55105
-16.055517000000002,9.165004,3.011906
5.956774,-0.114922,-2.39899
-3.08852,10.012551,6.244078
2.260126,9.23683,-6.277597
13.656527,6.670246000000001,1.642422
-3.270479,9.208099,-2.753332
4.630386,-11.204864,-0.536301
16.338032000000002,29.640217,25.19179
-4.041412,5.870583,6.540959
18.004396,25.546135,4.984728
1.886631,10.577583,10.247183
-1.632845,6.833052,-3.773262
0.325611,-12.009315,-4.204218
4.29041,23.008278,14.188039000000002
-3.222595,21.073763,13.757082999999998
6.258444,-6.220136,-3.936067
-3.610456,12.282255,10.591949
2.331953,15.543157999999998,1.958457
10.012551,-13.824121,-2.585738
2.298434,9.768343,7.771578999999999
34.830845000000004,30.588322,20.231005
5.243302,0.201113,-5.765238
-3.394978,4.716578,-2.097321
-1.991976,-8.853758000000001,-10.505757
-2.255338,20.786457,36.521152
-2.011129,5.702989,-2.39899
-4.395754,-5.880159,13.64695
16.816874,19.177555,8.772355000000001
-7.704541000000001,9.088389,-3.845088
5.956774,-0.114922,-2.39899
-3.08852,10.012551,6.244078
2.260126,9.23683,-6.277597
13.656527,6.670246000000001,1.642422
-3.270479,9.208099,-2.753332
4.630386,-11.204864,-0.536301
16.338032000000002,29.640217,25.19179
-4.041412,5.870583,6.540959
18.004396,25.546135,4.984728
1.886631,10.577583,10.247183
-1.632845,6.833052,-3.773262
0.325611,-12.009315,-4.204218
4.29041,23.008278,14.188039000000002
-3.222595,21.073763,13.757082999999998
6.258444,-6.220136,-3.936067
-3.610456,12.282255,10.591949
2.331953,15.543157999999998,1.958457
10.012551,-13.824121,-2.585738
2.298434,9.768343,7.771578999999999
34.830845000000004,30.588322,20.231005
5.243302,0.201113,-5.765238
-3.394978,4.716578,-2.097321
-1.991976,-8.853758000000001,-10.505757
-2.255338,20.786457,36.521152
-2.011129,5.702989,-2.39899
-4.395754,-5.880159,13.64695
16.816874,19.177555,8.772355000000001
-7.704541000000001,9.088389,-3.845088
13.953407,-12.813767,-4.003105000000001
1.13964,15.035586,13.249513
2.260126,9.23683,-6.277597
13.656527,6.670246000000001,1.642422
-3.270479,9.208099,-2.753332
4.630386,-11.204864,-0.536301
16.338032000000002,29.640217,25.19179
-4.041412,5.870583,6.540959
18.004396,25.546135,4.984728
1.886631,10.577583,10.247183
-1.632845,6.833052,-3.773262
0.325611,-12.009315,-4.204218
4.29041,23.008278,14.188039000000002
-3.222595,21.073763,13.757082999999998
6.258444,-6.220136,-3.936067
-3.610456,12.282255,10.591949
2.331953,15.543157999999998,1.958457
10.012551,-13.824121,-2.585738
2.298434,9.768343,7.771578999999999
34.830845000000004,30.588322,20.231005
5.243302,0.201113,-5.765238
-3.394978,4.716578,-2.097321
-1.991976,-8.853758000000001,-10.505757
-2.255338,20.786457,36.521152
-2.011129,5.702989,-2.39899
-4.395754,-5.880159,13.64695
16.816874,19.177555,8.772355000000001
-7.704541000000001,9.088389,-3.845088
13.953407,-12.813767,-4.003105000000001
1.13964,15.035586,13.249513
-8.63828,8.09719,21.241358
8.772355000000001,0.909797,-3.495534
-3.270479,9.208099,-2.753332
4.630386,-11.204864,-0.536301
16.338032000000002,29.640217,25.19179
-4.041412,5.870583,6.540959
18.004396,25.546135,4.984728
1.886631,10.577583,10.247183
-1.632845,6.833052,-3.773262
0.325611,-12.009315,-4.204218
4.29041,23.008278,14.188039000000002
-3.222595,21.073763,13.757082999999998
6.258444,-6.220136,-3.936067
-3.610456,12.282255,10.591949
2.331953,15.543157999999998,1.958457
10.012551,-13.824121,-2.585738
2.298434,9.768343,7.771578999999999
34.830845000000004,30.588322,20.231005
5.243302,0.201113,-5.765238
-3.394978,4.716578,-2.097321
-1.991976,-8.853758000000001,-10.505757
-2.255338,20.786457,36.521152
-2.011129,5.702989,-2.39899
-4.395754,-5.880159,13.64695
16.816874,19.177555,8.772355000000001
-7.704541000000001,9.088389,-3.845088
13.953407,-12.813767,-4.003105000000001
1.13964,15.035586,13.249513
-8.63828,8.09719,21.241358
8.772355000000001,0.909797,-3.495534
24.320301,28.735209,24.641125
-1.225831,12.354081,-1.522712
16.338032000000002,29.640217,25.19179
-4.041412,5.870583,6.540959
18.004396,25.546135,4.984728
1.886631,10.577583,10.247183
-1.632845,6.833052,-3.773262
0.325611,-12.009315,-4.204218
4.29041,23.008278,14.188039000000002
-3.222595,21.073763,13.757082999999998
6.258444,-6.220136,-3.936067
-3.610456,12.282255,10.591949
2.331953,15.543157999999998,1.958457
10.012551,-13.824121,-2.585738
2.298434,9.768343,7.771578999999999
34.830845000000004,30.588322,20.231005
5.243302,0.201113,-5.765238
-3.394978,4.716578,-2.097321
-1.991976,-8.853758000000001,-10.505757
-2.255338,20.786457,36.521152
-2.011129,5.702989,-2.39899
-4.395754,-5.880159,13.64695
16.816874,19.177555,8.772355000000001
-7.704541000000001,9.088389,-3.845088
13.953407,-12.813767,-4.003105000000001
1.13964,15.035586,13.249513
-8.63828,8.09719,21.241358
8.772355000000001,0.909797,-3.495534
24.320301,28.735209,24.641125
-1.225831,12.354081,-1.522712
14.03481,-13.833697,-9.212888
-0.1005559999999999,8.427589999999999,4.127604
18.004396,25.546135,4.984728
1.886631,10.577583,10.247183
-1.632845,6.833052,-3.773262
0.325611,-12.009315,-4.204218
4.29041,23.008278,14.188039000000002
-3.222595,21.073763,13.757082999999998
6.258444,-6.220136,-3.936067
-3.610456,12.282255,10.591949
2.331953,15.543157999999998,1.958457
10.012551,-13.824121,-2.585738
2.298434,9.768343,7.771578999999999
34.830845000000004,30.588322,20.231005
5.243302,0.201113,-5.765238
-3.394978,4.716578,-2.097321
-1.991976,-8.853758000000001,-10.505757
-2.255338,20.786457,36.521152
-2.011129,5.702989,-2.39899
-4.395754,-5.880159,13.64695
16.816874,19.177555,8.772355000000001
-7.704541000000001,9.088389,-3.845088
13.953407,-12.813767,-4.003105000000001
1.13964,15.035586,13.249513
-8.63828,8.09719,21.241358
8.772355000000001,0.909797,-3.495534
24.320301,28.735209,24.641125
-1.225831,12.354081,-1.522712
14.03481,-13.833697,-9.212888
-0.1005559999999999,8.427589999999999,4.127604
15.404294,16.414645999999998,16.189592
9.437943,3.3854010000000003,2.240973
-1.632845,6.833052,-3.773262
0.325611,-12.009315,-4.204218
4.29041,23.008278,14.188039000000002
-3.222595,21.073763,13.757082999999998
6.258444,-6.220136,-3.936067
-3.610456,12.282255,10.591949
2.331953,15.543157999999998,1.958457
10.012551,-13.824121,-2.585738
2.298434,9.768343,7.771578999999999
34.830845000000004,30.588322,20.231005
5.243302,0.201113,-5.765238
-3.394978,4.716578,-2.097321
-1.991976,-8.853758000000001,-10.505757
-2.255338,20.786457,36.521152
-2.011129,5.702989,-2.39899
-4.395754,-5.880159,13.64695
16.816874,19.177555,8.772355000000001
-7.704541000000001,9.088389,-3.845088
13.953407,-12.813767,-4.003105000000001
1.13964,15.035586,13.249513
-8.63828,8.09719,21.241358
8.772355000000001,0.909797,-3.495534
24.320301,28.735209,24.641125
-1.225831,12.354081,-1.522712
14.03481,-13.833697,-9.212888
-0.1005559999999999,8.427589999999999,4.127604
15.404294,16.414645999999998,16.189592
9.437943,3.3854010000000003,2.240973
-1.144428,7.455544000000001,-4.256891
13.962984,-12.042834,-0.732626
4.29041,23.008278,14.188039000000002
-3.222595,21.073763,13.757082999999998
6.258444,-6.220136,-3.936067
-3.610456,12.282255,10.591949
2.331953,15.543157999999998,1.958457
10.012551,-13.824121,-2.585738
2.298434,9.768343,7.771578999999999
34.830845000000004,30.588322,20.231005
5.243302,0.201113,-5.765238
-3.394978,4.716578,-2.097321
-1.991976,-8.853758000000001,-10.505757
-2.255338,20.786457,36.521152
-2.011129,5.702989,-2.39899
-4.395754,-5.880159,13.64695
16.816874,19.177555,8.772355000000001
-7.704541000000001,9.088389,-3.845088
13.953407,-12.813767,-4.003105000000001
1.13964,15.035586,13.249513
-8.63828,8.09719,21.241358
8.772355000000001,0.909797,-3.495534
24.320301,28.735209,24.641125
-1.225831,12.354081,-1.522712
14.03481,-13.833697,-9.212888
-0.1005559999999999,8.427589999999999,4.127604
15.404294,16.414645999999998,16.189592
9.437943,3.3854010000000003,2.240973
-1.144428,7.455544000000001,-4.256891
13.962984,-12.042834,-0.732626
0.474052,27.207708,14.551958
-1.25935,8.231264999999999,0.833182
6.258444,-6.220136,-3.936067
-3.610456,12.282255,10.591949
2.331953,15.543157999999998,1.958457
10.012551,-13.824121,-2.585738
2.298434,9.768343,7.771578999999999
34.830845000000004,30.588322,20.231005
5.243302,0.201113,-5.765238
-3.394978,4.716578,-2.097321
-1.991976,-8.853758000000001,-10.505757
-2.255338,20.786457,36.521152
-2.011129,5.702989,-2.39899
-4.395754,-5.880159,13.64695
